trials.thisRepN,trials.thisTrialN,trials.thisN,trials.thisIndex,num_distr,fixation.started,target.started,mouse.started,mouse.x,mouse.y,mouse.leftButton,mouse.midButton,mouse.rightButton,mouse.time,mouse.clicked_name,participant,session,date,expName,psychopyVersion,frameRate,
0,0,0,0,5,104.50239829999919,104.50239829999919,0.17593869999109302,[0.058333333333333334],[-0.36666666666666664],[1],[0],[0],[2.231489599987981],['target'],1,001,2022-09-16_12h52.12.041,T3,2022.2.2,59.949953781356825,
1,0,1,0,5,106.66331030000583,106.66331030000583,0.02537329999904614,[0.4861111111111111],[-0.11574074074074074],[1],[0],[0],[1.9984011000051396],['target'],1,001,2022-09-16_12h52.12.041,T3,2022.2.2,59.949953781356825,
2,0,2,0,10,108.69407949999731,108.69407949999731,0.025824600001215003,[-0.2361111111111111],[-0.23703703703703705],[1],[0],[0],[1.752936700009741],['target'],1,001,2022-09-16_12h52.12.041,T3,2022.2.2,59.949953781356825,
3,0,3,0,10,110.47648490000574,110.47648490000574,0.02607650001300499,[-0.48055555555555557],[0.34444444444444444],[1],[0],[0],[2.468833999999333],['target'],1,001,2022-09-16_12h52.12.041,T3,2022.2.2,59.949953781356825,
4,0,4,0,10,112.97298639999644,112.97298639999644,0.026427700009662658,[0.18333333333333332],[-0.44166666666666665],[1],[0],[0],[2.168789099989226],['target'],1,001,2022-09-16_12h52.12.041,T3,2022.2.2,59.949953781356825,
5,0,5,0,10,115.17003819999809,115.17003819999809,0.025954400000046007,[-0.14814814814814814],[0.21203703703703702],[1],[0],[0],[1.6530670000065584],['target'],1,001,2022-09-16_12h52.12.041,T3,2022.2.2,59.949953781356825,
6,0,6,0,5,116.83649420000438,116.83649420000438,0.014233299996703863,[-0.20555555555555555],[0.04814814814814815],[1],[0],[0],[1.8981160999974236],['target'],1,001,2022-09-16_12h52.12.041,T3,2022.2.2,59.949953781356825,
7,0,7,0,5,118.75138210000296,118.75138210000296,0.013635399998747744,[0.33796296296296297],[0.4537037037037037],[1],[0],[0],[1.9988412999955472],['target'],1,001,2022-09-16_12h52.12.041,T3,2022.2.2,59.949953781356825,
8,0,8,0,10,120.78304110000317,120.78304110000317,0.02608670000336133,[0.2388888888888889],[-0.29259259259259257],[1],[0],[0],[2.2021301000058884],['target'],1,001,2022-09-16_12h52.12.041,T3,2022.2.2,59.949953781356825,
9,0,9,0,10,123.01892950000183,123.01892950000183,0.029954300000099465,[0.3490740740740741],[0.08981481481481482],[1],[0],[0],[1.9151503000030061],['target'],1,001,2022-09-16_12h52.12.041,T3,2022.2.2,59.949953781356825,
10,0,10,0,10,124.96326220000628,124.96326220000628,0.026167799995164387,[0.002777777777777778],[0.24351851851851852],[1],[0],[0],[1.6028150000056485],['target'],1,001,2022-09-16_12h52.12.041,T3,2022.2.2,59.949953781356825,
11,0,11,0,10,126.595458900003,126.595458900003,0.025621699998737313,[0.049074074074074076],[-0.15],[1],[0],[0],[3.0185837000026368],['target'],1,001,2022-09-16_12h52.12.041,T3,2022.2.2,59.949953781356825,
12,0,12,0,5,129.62525939999614,129.62525939999614,0.013536799990106374,[0.41388888888888886],[0.2601851851851852],[1],[0],[0],[1.9320112999994308],['target'],1,001,2022-09-16_12h52.12.041,T3,2022.2.2,59.949953781356825,
13,0,13,0,5,131.57390339999984,131.57390339999984,0.013622099999338388,[0.08796296296296297],[0.06018518518518518],[1],[0],[0],[1.7656287999998312],['target'],1,001,2022-09-16_12h52.12.041,T3,2022.2.2,59.949953781356825,
14,0,14,0,10,133.37311280000722,133.37311280000722,0.02667459999793209,[-0.42685185185185187],[0.3861111111111111],[1],[0],[0],[2.917546800003038],['target'],1,001,2022-09-16_12h52.12.041,T3,2022.2.2,59.949953781356825,
15,0,15,0,5,136.30308100000548,136.30308100000548,0.013759900000877678,[0.2898148148148148],[0.4861111111111111],[1],[0],[0],[1.9982311999920057],['target'],1,001,2022-09-16_12h52.12.041,T3,2022.2.2,59.949953781356825,
16,0,16,0,5,138.31793459999608,138.31793459999608,0.013463899987982586,[0.07222222222222222],[0.337037037037037],[1],[0],[0],[2.0651328999956604],['target'],1,001,2022-09-16_12h52.12.041,T3,2022.2.2,59.949953781356825,
17,0,17,0,10,140.4149230000039,140.4149230000039,0.025374499993631616,[0.003703703703703704],[0.23148148148148148],[1],[0],[0],[1.3539171000011265],['target'],1,001,2022-09-16_12h52.12.041,T3,2022.2.2,59.949953781356825,
18,0,18,0,5,141.78245060000336,141.78245060000336,0.015133299995795824,[-0.22314814814814815],[-0.44907407407407407],[1],[0],[0],[1.8465190999995684],['target'],1,001,2022-09-16_12h52.12.041,T3,2022.2.2,59.949953781356825,
19,0,19,0,10,143.66498200000206,143.66498200000206,0.02926899999147281,[0.10833333333333334],[-0.062037037037037036],[1],[0],[0],[1.598302700003842],['target'],1,001,2022-09-16_12h52.12.041,T3,2022.2.2,59.949953781356825,
20,0,20,0,10,145.29631560000416,145.29631560000416,0.02905270000337623,[0.1388888888888889],[-0.43333333333333335],[1],[0],[0],[2.0835459000081755],['target'],1,001,2022-09-16_12h52.12.041,T3,2022.2.2,59.949953781356825,
21,0,21,0,10,147.59650070000498,147.59650070000498,0.030047299995203502,[-0.1527777777777778],[0.4638888888888889],[1],[0],[0],[2.2817073999904096],['target'],1,001,2022-09-16_12h52.12.041,T3,2022.2.2,59.949953781356825,
22,0,22,0,10,149.78356850000273,149.78356850000273,0.08540319999156054,[0.32037037037037036],[0.1287037037037037],[1],[0],[0],[2.058416900006705],['target'],1,001,2022-09-16_12h52.12.041,T3,2022.2.2,59.949953781356825,
23,0,23,0,5,151.85810690000653,151.85810690000653,0.016476399992825463,[0.4925925925925926],[0.4462962962962963],[1],[0],[0],[1.8117976999928942],['target'],1,001,2022-09-16_12h52.12.041,T3,2022.2.2,59.949953781356825,
24,0,24,0,10,153.7027434000047,153.7027434000047,0.026608300002408214,[0.3537037037037037],[0.47314814814814815],[1],[0],[0],[2.169255200002226],['target'],1,001,2022-09-16_12h52.12.041,T3,2022.2.2,59.949953781356825,
25,0,25,0,5,155.88488709999365,155.88488709999365,0.013129500002833083,[0.15462962962962962],[0.32592592592592595],[1],[0],[0],[1.882218600003398],['target'],1,001,2022-09-16_12h52.12.041,T3,2022.2.2,59.949953781356825,
26,0,26,0,10,157.7994439000031,157.7994439000031,0.026651200008927844,[0.1259259259259259],[-0.45],[1],[0],[0],[1.8018649000005098],['target'],1,001,2022-09-16_12h52.12.041,T3,2022.2.2,59.949953781356825,
27,0,27,0,5,159.61390520000714,159.61390520000714,0.013724300006288104,[-0.11574074074074074],[0.16944444444444445],[1],[0],[0],[1.7318199000001187],['target'],1,001,2022-09-16_12h52.12.041,T3,2022.2.2,59.949953781356825,
28,0,28,0,10,161.384375499998,161.384375499998,0.031596500004525296,[0.14074074074074075],[-0.25092592592592594],[1],[0],[0],[1.5975813999975799],['target'],1,001,2022-09-16_12h52.12.041,T3,2022.2.2,59.949953781356825,
29,0,29,0,10,163.01521359999606,163.01521359999606,0.02804659999674186,[-0.23333333333333334],[0.049074074074074076],[1],[0],[0],[1.734569599997485],['target'],1,001,2022-09-16_12h52.12.041,T3,2022.2.2,59.949953781356825,
30,0,30,0,5,164.761559999999,164.761559999999,0.014407499998924322,[0.08981481481481482],[-0.053703703703703705],[1],[0],[0],[1.4479717000067467],['target'],1,001,2022-09-16_12h52.12.041,T3,2022.2.2,59.949953781356825,
31,0,31,0,5,166.2288086000044,166.2288086000044,0.016976700004306622,[-0.46574074074074073],[-0.20833333333333334],[1],[0],[0],[1.7616920000000391],['target'],1,001,2022-09-16_12h52.12.041,T3,2022.2.2,59.949953781356825,
32,0,32,0,5,168.0070917999983,168.0070917999983,0.01361229999747593,[0.1638888888888889],[0.20277777777777778],[1],[0],[0],[1.8141443000058644],['target'],1,001,2022-09-16_12h52.12.041,T3,2022.2.2,59.949953781356825,
33,0,33,0,5,169.83785339999304,169.83785339999304,0.01420499999949243,[0.1638888888888889],[0.20277777777777778],[1],[0],[0],[0.8490042999910656],[],1,001,2022-09-16_12h52.12.041,T3,2022.2.2,59.949953781356825,
34,0,34,0,10,170.73616430000402,170.73616430000402,0.03662929999700282,[0.4601851851851852],[0.28703703703703703],[1],[0],[0],[1.9569444000080694],['target'],1,001,2022-09-16_12h52.12.041,T3,2022.2.2,59.949953781356825,
35,0,35,0,5,172.70066190000216,172.70066190000216,0.013599400001112372,[0.45925925925925926],[-0.40555555555555556],[1],[0],[0],[2.248531199991703],['target'],1,001,2022-09-16_12h52.12.041,T3,2022.2.2,59.949953781356825,
36,0,36,0,10,174.98392980000062,174.98392980000062,0.02674760000081733,[0.43425925925925923],[-0.35648148148148145],[1],[0],[0],[1.902499000003445],['target'],1,001,2022-09-16_12h52.12.041,T3,2022.2.2,59.949953781356825,
37,0,37,0,5,176.89878069999395,176.89878069999395,0.013994299995829351,[-0.07407407407407407],[0.36203703703703705],[1],[0],[0],[2.1646263000002364],['target'],1,001,2022-09-16_12h52.12.041,T3,2022.2.2,59.949953781356825,
38,0,38,0,10,179.10346810000192,179.10346810000192,0.032113099994603544,[-0.06759259259259259],[-0.08981481481481482],[1],[0],[0],[1.7784960999997566],['target'],1,001,2022-09-16_12h52.12.041,T3,2022.2.2,59.949953781356825,
39,0,39,0,10,180.9125795,180.9125795,0.02913070000067819,[-0.26666666666666666],[-0.12037037037037036],[1],[0],[0],[1.6668676999979652],['target'],1,001,2022-09-16_12h52.12.041,T3,2022.2.2,59.949953781356825,
40,0,40,0,5,182.59269370000402,182.59269370000402,0.013178400011383928,[0.2101851851851852],[-0.29074074074074074],[1],[0],[0],[1.7322049999929732],['target'],1,001,2022-09-16_12h52.12.041,T3,2022.2.2,59.949953781356825,
41,0,41,0,10,184.35799720000068,184.35799720000068,0.02652880000823643,[-0.3712962962962963],[0.4398148148148148],[1],[0],[0],[2.1354470000078436],['target'],1,001,2022-09-16_12h52.12.041,T3,2022.2.2,59.949953781356825,
42,0,42,0,5,186.50593640000443,186.50593640000443,0.013596299992059357,[-0.4527777777777778],[-0.1787037037037037],[1],[0],[0],[1.948489000002155],['target'],1,001,2022-09-16_12h52.12.041,T3,2022.2.2,59.949953781356825,
43,0,43,0,10,188.48775410000235,188.48775410000235,0.026407500001369044,[-0.028703703703703703],[-0.028703703703703703],[1],[0],[0],[2.152583399991272],['target'],1,001,2022-09-16_12h52.12.041,T3,2022.2.2,59.949953781356825,
44,0,44,0,5,190.65241799999785,190.65241799999785,0.013786200011963956,[-0.3712962962962963],[-0.34444444444444444],[1],[0],[0],[1.6316907000000356],['target'],1,001,2022-09-16_12h52.12.041,T3,2022.2.2,59.949953781356825,
45,0,45,0,10,192.31774759999826,192.31774759999826,0.026210699987132102,[0.17592592592592593],[0.24722222222222223],[1],[0],[0],[1.6190879000059795],['target'],1,001,2022-09-16_12h52.12.041,T3,2022.2.2,59.949953781356825,
46,0,46,0,5,193.9489515000023,193.9489515000023,0.013961600008769892,[0.06481481481481481],[-0.175],[1],[0],[0],[1.3822167000034824],['target'],1,001,2022-09-16_12h52.12.041,T3,2022.2.2,59.949953781356825,
47,0,47,0,5,195.34700690000318,195.34700690000318,0.013224599999375641,[-0.32592592592592595],[-0.08981481481481482],[1],[0],[0],[1.4831516000122065],['target'],1,001,2022-09-16_12h52.12.041,T3,2022.2.2,59.949953781356825,
48,0,48,0,10,196.8624315000052,196.8624315000052,0.02634579999721609,[0.29907407407407405],[0.3175925925925926],[1],[0],[0],[1.768416700011585],['target'],1,001,2022-09-16_12h52.12.041,T3,2022.2.2,59.949953781356825,
49,0,49,0,5,198.65522050000436,198.65522050000436,0.022088300000177696,[0.17962962962962964],[0.0712962962962963],[1],[0],[0],[2.238982400012901],['target'],1,001,2022-09-16_12h52.12.041,T3,2022.2.2,59.949953781356825,
50,0,50,0,5,200.90840440000466,200.90840440000466,0.013306100008776411,[-0.36574074074074076],[0.4925925925925926],[1],[0],[0],[1.8489747999992687],['target'],1,001,2022-09-16_12h52.12.041,T3,2022.2.2,59.949953781356825,
51,0,51,0,5,202.7845060999971,202.7845060999971,0.018053599997074343,[0.09351851851851851],[0.4027777777777778],[1],[0],[0],[1.5429064000054495],['target'],1,001,2022-09-16_12h52.12.041,T3,2022.2.2,59.949953781356825,
52,0,52,0,5,204.34510299999965,204.34510299999965,0.01911130000371486,[0.2657407407407407],[0.23981481481481481],[1],[0],[0],[1.3765423000004375],['target'],1,001,2022-09-16_12h52.12.041,T3,2022.2.2,59.949953781356825,
53,0,53,0,5,205.73882800000138,205.73882800000138,0.014498400007141754,[-0.2564814814814815],[0.10833333333333334],[1],[0],[0],[1.5646057999983896],['target'],1,001,2022-09-16_12h52.12.041,T3,2022.2.2,59.949953781356825,
54,0,54,0,10,207.33702669999911,207.33702669999911,0.027662100008456036,[-0.23055555555555557],[-0.002777777777777778],[1],[0],[0],[1.5016497000033269],['target'],1,001,2022-09-16_12h52.12.041,T3,2022.2.2,59.949953781356825,
55,0,55,0,10,208.87031529999513,208.87031529999513,0.025996600001235493,[0.34074074074074073],[0.2712962962962963],[1],[0],[0],[1.467888800005312],['target'],1,001,2022-09-16_12h52.12.041,T3,2022.2.2,59.949953781356825,
56,0,56,0,5,210.3584625999938,210.3584625999938,0.01977959999931045,[0.2712962962962963],[-0.12962962962962962],[1],[0],[0],[1.4919031000026735],['target'],1,001,2022-09-16_12h52.12.041,T3,2022.2.2,59.949953781356825,
57,0,57,0,5,211.8672355000017,211.8672355000017,0.013374200003454462,[-0.4101851851851852],[-0.3861111111111111],[1],[0],[0],[1.464087499989546],['target'],1,001,2022-09-16_12h52.12.041,T3,2022.2.2,59.949953781356825,
58,0,58,0,5,213.34950349999417,213.34950349999417,0.013903200000640936,[-0.37037037037037035],[-0.35185185185185186],[1],[0],[0],[1.5971478999999817],['target'],1,001,2022-09-16_12h52.12.041,T3,2022.2.2,59.949953781356825,
59,0,59,0,5,214.96342780000123,214.96342780000123,0.014263199991546571,[0.2222222222222222],[0.2972222222222222],[1],[0],[0],[1.6317617999884533],['target'],1,001,2022-09-16_12h52.12.041,T3,2022.2.2,59.949953781356825,
60,0,60,0,10,216.62728129999596,216.62728129999596,0.02598809999471996,[0.35648148148148145],[0.2518518518518518],[1],[0],[0],[1.5198699000029592],['target'],1,001,2022-09-16_12h52.12.041,T3,2022.2.2,59.949953781356825,
61,0,61,0,5,218.1603305000026,218.1603305000026,0.013371199995162897,[0.4666666666666667],[0.12314814814814815],[1],[0],[0],[1.8317335000028834],['target'],1,001,2022-09-16_12h52.12.041,T3,2022.2.2,59.949953781356825,
62,0,62,0,5,220.00704419999965,220.00704419999965,0.013574700002209283,[0.46296296296296297],[-0.14629629629629629],[1],[0],[0],[1.7327612999943085],['target'],1,001,2022-09-16_12h52.12.041,T3,2022.2.2,59.949953781356825,
63,0,63,0,5,221.75671169999987,221.75671169999987,0.014261699994676746,[0.4351851851851852],[-0.025],[1],[0],[0],[1.2317156000062823],['target'],1,001,2022-09-16_12h52.12.041,T3,2022.2.2,59.949953781356825,
64,0,64,0,10,223.02579119999427,223.02579119999427,0.03012979999766685,[-0.40925925925925927],[-0.05925925925925926],[1],[0],[0],[1.44871840000269],['target'],1,001,2022-09-16_12h52.12.041,T3,2022.2.2,59.949953781356825,
65,0,65,0,10,224.5039165000053,224.5039165000053,0.026210699987132102,[-0.2935185185185185],[0.42962962962962964],[1],[0],[0],[1.5532486000010977],['target'],1,001,2022-09-16_12h52.12.041,T3,2022.2.2,59.949953781356825,
66,0,66,0,10,226.08454999999958,226.08454999999958,0.02576039999257773,[-0.10277777777777777],[0.22685185185185186],[1],[0],[0],[1.2540919999883045],['target'],1,001,2022-09-16_12h52.12.041,T3,2022.2.2,59.949953781356825,
67,0,67,0,5,227.35130429999845,227.35130429999845,0.013352499998291023,[0.03796296296296296],[0.4824074074074074],[1],[0],[0],[1.449289399999543],['target'],1,001,2022-09-16_12h52.12.041,T3,2022.2.2,59.949953781356825,
68,0,68,0,5,228.81782050000038,228.81782050000038,0.012933000005432405,[-0.3537037037037037],[-0.31666666666666665],[1],[0],[0],[1.582275299995672],['target'],1,001,2022-09-16_12h52.12.041,T3,2022.2.2,59.949953781356825,
69,0,69,0,10,230.4321959999943,230.4321959999943,0.025694099997053854,[0.3277777777777778],[0.09814814814814815],[1],[0],[0],[1.8030906999920262],['target'],1,001,2022-09-16_12h52.12.041,T3,2022.2.2,59.949953781356825,
70,0,70,0,5,232.24684209999396,232.24684209999396,0.013493399994331412,[-0.004629629629629629],[-0.08333333333333333],[1],[0],[0],[1.3990283000021009],['target'],1,001,2022-09-16_12h52.12.041,T3,2022.2.2,59.949953781356825,
71,0,71,0,5,233.66164059999574,233.66164059999574,0.01314710000588093,[0.25],[-0.05648148148148148],[1],[0],[0],[1.1663778999936767],['target'],1,001,2022-09-16_12h52.12.041,T3,2022.2.2,59.949953781356825,
72,0,72,0,10,234.86102680000477,234.86102680000477,0.02681569999549538,[0.2740740740740741],[0.4740740740740741],[1],[0],[0],[2.2693517000006977],['target'],1,001,2022-09-16_12h52.12.041,T3,2022.2.2,59.949953781356825,
73,0,73,0,5,237.14308270000038,237.14308270000038,0.013854999997420236,[-0.1259259259259259],[0.062037037037037036],[1],[0],[0],[1.4974107000016375],['target'],1,001,2022-09-16_12h52.12.041,T3,2022.2.2,59.949953781356825,
74,0,74,0,10,238.67405390000204,238.67405390000204,0.026141800000914373,[-0.2722222222222222],[-0.2111111111111111],[1],[0],[0],[1.8357477999961702],['target'],1,001,2022-09-16_12h52.12.041,T3,2022.2.2,59.949953781356825,
75,0,75,0,5,240.52097169999615,240.52097169999615,0.013126000005286187,[-0.4546296296296296],[-0.43425925925925923],[1],[0],[0],[1.8998572000127751],['target'],1,001,2022-09-16_12h52.12.041,T3,2022.2.2,59.949953781356825,
76,0,76,0,10,242.45585919999576,242.45585919999576,0.027396299992688,[-0.18611111111111112],[-0.06851851851851852],[1],[0],[0],[1.5177825999999186],['target'],1,001,2022-09-16_12h52.12.041,T3,2022.2.2,59.949953781356825,
77,0,77,0,5,243.98659630000475,243.98659630000475,0.014715900004375726,[0.32314814814814813],[-0.037037037037037035],[1],[0],[0],[1.7478438999969512],['target'],1,001,2022-09-16_12h52.12.041,T3,2022.2.2,59.949953781356825,
78,0,78,0,10,245.76932380000653,245.76932380000653,0.02928619999147486,[-0.3],[-0.4787037037037037],[1],[0],[0],[1.8831422999937786],['target'],1,001,2022-09-16_12h52.12.041,T3,2022.2.2,59.949953781356825,
79,0,79,0,10,247.68481999999494,247.68481999999494,0.029025899988482706,[0.041666666666666664],[-0.2388888888888889],[1],[0],[0],[1.4667024000082165],['target'],1,001,2022-09-16_12h52.12.041,T3,2022.2.2,59.949953781356825,
80,0,80,0,5,249.16521789999388,249.16521789999388,0.01389079999353271,[-0.23148148148148148],[-0.23981481481481481],[1],[0],[0],[1.5656076000013854],['target'],1,001,2022-09-16_12h52.12.041,T3,2022.2.2,59.949953781356825,
81,0,81,0,5,250.74609559999953,250.74609559999953,0.013337299998966046,[-0.03611111111111111],[0.3592592592592593],[1],[0],[0],[1.4992242000007536],['target'],1,001,2022-09-16_12h52.12.041,T3,2022.2.2,59.949953781356825,
82,0,82,0,5,252.2626256999938,252.2626256999938,0.01468189999286551,[0.032407407407407406],[0.40555555555555556],[1],[0],[0],[1.381006299998262],['target'],1,001,2022-09-16_12h52.12.041,T3,2022.2.2,59.949953781356825,
83,0,83,0,5,253.66008129999682,253.66008129999682,0.013693499990040436,[0.30648148148148147],[-0.1574074074074074],[1],[0],[0],[1.4992810999974608],['target'],1,001,2022-09-16_12h52.12.041,T3,2022.2.2,59.949953781356825,
84,0,84,0,10,255.19269900000654,255.19269900000654,0.025581099995179102,[0.2712962962962963],[-0.3138888888888889],[1],[0],[0],[1.403108099999372],['target'],1,001,2022-09-16_12h52.12.041,T3,2022.2.2,59.949953781356825,
85,0,85,0,10,256.6287119000044,256.6287119000044,0.029053100006422028,[-0.09444444444444444],[0.041666666666666664],[1],[0],[0],[1.5334896000131266],['target'],1,001,2022-09-16_12h52.12.041,T3,2022.2.2,59.949953781356825,
86,0,86,0,5,258.1723523999972,258.1723523999972,0.013429200000246055,[-0.1],[-0.4462962962962963],[1],[0],[0],[1.798670599993784],['target'],1,001,2022-09-16_12h52.12.041,T3,2022.2.2,59.949953781356825,
87,0,87,0,5,259.99288089999754,259.99288089999754,0.017467500001657754,[-0.4527777777777778],[0.03333333333333333],[1],[0],[0],[2.010279399997671],['target'],1,001,2022-09-16_12h52.12.041,T3,2022.2.2,59.949953781356825,
88,0,88,0,10,262.03671770000074,262.03671770000074,0.026423099989187904,[0.2574074074074074],[-0.21574074074074073],[1],[0],[0],[1.618886600001133],['target'],1,001,2022-09-16_12h52.12.041,T3,2022.2.2,59.949953781356825,
89,0,89,0,5,263.66697390000627,263.66697390000627,0.01342790000489913,[0.46111111111111114],[0.06018518518518518],[1],[0],[0],[1.7652333000005456],['target'],1,001,2022-09-16_12h52.12.041,T3,2022.2.2,59.949953781356825,
90,0,90,0,5,265.44862520000606,265.44862520000606,0.013354599999729544,[0.10648148148148148],[0.003703703703703704],[1],[0],[0],[1.4491674000018975],['target'],1,001,2022-09-16_12h52.12.041,T3,2022.2.2,59.949953781356825,
91,0,91,0,5,266.9147815000033,266.9147815000033,0.014282799995271489,[0.30648148148148147],[-0.14814814814814814],[1],[0],[0],[1.797814900011872],['target'],1,001,2022-09-16_12h52.12.041,T3,2022.2.2,59.949953781356825,
92,0,92,0,5,268.7320388999942,268.7320388999942,0.015488899996853434,[-0.28425925925925927],[0.24444444444444444],[1],[0],[0],[1.8127263000060339],['target'],1,001,2022-09-16_12h52.12.041,T3,2022.2.2,59.949953781356825,
93,0,93,0,10,270.5774492000055,270.5774492000055,0.026724700001068413,[-0.12129629629629629],[-0.48333333333333334],[1],[0],[0],[2.0354269000090426],['target'],1,001,2022-09-16_12h52.12.041,T3,2022.2.2,59.949953781356825,
94,0,94,0,10,272.64493290000246,272.64493290000246,0.028844200001913123,[0.2740740740740741],[0.43425925925925923],[1],[0],[0],[1.9488280000077793],['target'],1,001,2022-09-16_12h52.12.041,T3,2022.2.2,59.949953781356825,
95,0,95,0,5,274.60707060000277,274.60707060000277,0.013847199996234849,[0.09259259259259259],[0.024074074074074074],[1],[0],[0],[1.5158917999942787],['target'],1,001,2022-09-16_12h52.12.041,T3,2022.2.2,59.949953781356825,
96,0,96,0,10,276.1552306999947,276.1552306999947,0.025836700006038882,[0.2611111111111111],[0.15648148148148147],[1],[0],[0],[1.4033519000076922],['target'],1,001,2022-09-16_12h52.12.041,T3,2022.2.2,59.949953781356825,
97,0,97,0,5,277.5721947999991,277.5721947999991,0.015228499993099831,[-0.010185185185185186],[0.2759259259259259],[1],[0],[0],[1.5810299000004306],['target'],1,001,2022-09-16_12h52.12.041,T3,2022.2.2,59.949953781356825,
98,0,98,0,10,279.1859489000053,279.1859489000053,0.025698600002215244,[0.3037037037037037],[0.06759259259259259],[1],[0],[0],[1.7199063999869395],['target'],1,001,2022-09-16_12h52.12.041,T3,2022.2.2,59.949953781356825,
99,0,99,0,5,280.91917880000256,280.91917880000256,0.014413200013223104,[-0.1935185185185185],[0.03611111111111111],[1],[0],[0],[1.9137415000004694],['target'],1,001,2022-09-16_12h52.12.041,T3,2022.2.2,59.949953781356825,
100,0,100,0,5,282.85241900000256,282.85241900000256,0.016456199999083765,[-0.2953703703703704],[-0.30925925925925923],[1],[0],[0],[1.3964653000002727],['target'],1,001,2022-09-16_12h52.12.041,T3,2022.2.2,59.949953781356825,
101,0,101,0,10,284.2873920999991,284.2873920999991,0.03132900000491645,[0.3175925925925926],[0.06851851851851852],[1],[0],[0],[1.348319700002321],['target'],1,001,2022-09-16_12h52.12.041,T3,2022.2.2,59.949953781356825,
102,0,102,0,10,285.66366020000714,285.66366020000714,0.026270900008967146,[0.19814814814814816],[0.09814814814814815],[1],[0],[0],[1.25338210001064],['target'],1,001,2022-09-16_12h52.12.041,T3,2022.2.2,59.949953781356825,
103,0,103,0,5,286.93022120000387,286.93022120000387,0.013644400009070523,[-0.18333333333333332],[0.07222222222222222],[1],[0],[0],[1.465012199987541],['target'],1,001,2022-09-16_12h52.12.041,T3,2022.2.2,59.949953781356825,
104,0,104,0,5,288.41666790000454,288.41666790000454,0.018350700003793463,[-0.2175925925925926],[-0.004629629629629629],[1],[0],[0],[1.2775154999981169],['target'],1,001,2022-09-16_12h52.12.041,T3,2022.2.2,59.949953781356825,
105,0,105,0,5,289.7169417999976,289.7169417999976,0.018016500005614944,[-0.4351851851851852],[-0.27037037037037037],[1],[0],[0],[1.726606800002628],['target'],1,001,2022-09-16_12h52.12.041,T3,2022.2.2,59.949953781356825,
106,0,106,0,5,291.46015709999483,291.46015709999483,0.015492000005906448,[0.06111111111111111],[-0.10925925925925926],[1],[0],[0],[1.4970476000016788],['target'],1,001,2022-09-16_12h52.12.041,T3,2022.2.2,59.949953781356825,
107,0,107,0,10,293.00069810000423,293.00069810000423,0.034905299995443784,[-0.1712962962962963],[0.37037037037037035],[1],[0],[0],[1.6763665000034962],['target'],1,001,2022-09-16_12h52.12.041,T3,2022.2.2,59.949953781356825,
108,0,108,0,5,294.6926892000047,294.6926892000047,0.01767689999542199,[-0.4722222222222222],[-0.17592592592592593],[1],[0],[0],[1.7113504000008106],['target'],1,001,2022-09-16_12h52.12.041,T3,2022.2.2,59.949953781356825,
109,0,109,0,5,296.43115420000686,296.43115420000686,0.022732099998393096,[0.45092592592592595],[0.26851851851851855],[1],[0],[0],[1.8211216000054264],['target'],1,001,2022-09-16_12h52.12.041,T3,2022.2.2,59.949953781356825,
110,0,110,0,5,298.2684065999929,298.2684065999929,0.014593400002922863,[0.35462962962962963],[-0.15092592592592594],[1],[0],[0],[1.498632800008636],['target'],1,001,2022-09-16_12h52.12.041,T3,2022.2.2,59.949953781356825,
111,0,111,0,5,299.7895787000016,299.7895787000016,0.018099599998095073,[-0.18333333333333332],[0.1037037037037037],[1],[0],[0],[1.5276607999985572],['target'],1,001,2022-09-16_12h52.12.041,T3,2022.2.2,59.949953781356825,
112,0,112,0,10,301.363878499993,301.363878499993,0.03602329999557696,[-0.17592592592592593],[-0.17777777777777778],[1],[0],[0],[1.5574032999866176],['target'],1,001,2022-09-16_12h52.12.041,T3,2022.2.2,59.949953781356825,
113,0,113,0,5,302.9414140000008,302.9414140000008,0.019995599999674596,[0.17222222222222222],[-0.4203703703703704],[1],[0],[0],[1.6573376000014832],['target'],1,001,2022-09-16_12h52.12.041,T3,2022.2.2,59.949953781356825,
114,0,114,0,5,304.61360830000194,304.61360830000194,0.013012499999604188,[-0.08611111111111111],[-0.19166666666666668],[1],[0],[0],[1.365454899991164],['target'],1,001,2022-09-16_12h52.12.041,T3,2022.2.2,59.949953781356825,
115,0,115,0,5,305.9957979000028,305.9957979000028,0.014859500006423332,[-0.025925925925925925],[0.15092592592592594],[1],[0],[0],[1.4979284000000916],['target'],1,001,2022-09-16_12h52.12.041,T3,2022.2.2,59.949953781356825,
116,0,116,0,10,307.5259242000029,307.5259242000029,0.024476200007484294,[-0.15555555555555556],[0.30277777777777776],[1],[0],[0],[1.7706283000006806],['target'],1,001,2022-09-16_12h52.12.041,T3,2022.2.2,59.949953781356825,
117,0,117,0,10,309.3328823000047,309.3328823000047,0.03204239999467973,[0.37037037037037035],[0.32685185185185184],[1],[0],[0],[1.7301967999956105],['target'],1,001,2022-09-16_12h52.12.041,T3,2022.2.2,59.949953781356825,
118,0,118,0,10,311.09696549999353,311.09696549999353,0.03316900000208989,[-0.38333333333333336],[0.30833333333333335],[1],[0],[0],[1.7289556000032462],['target'],1,001,2022-09-16_12h52.12.041,T3,2022.2.2,59.949953781356825,
119,0,119,0,5,312.84137900000496,312.84137900000496,0.014532200002577156,[-0.08703703703703704],[0.34444444444444444],[1],[0],[0],[1.3488719000015408],['target'],1,001,2022-09-16_12h52.12.041,T3,2022.2.2,59.949953781356825,
120,0,120,0,5,314.20484679999936,314.20484679999936,0.0143205000058515,[-0.47962962962962963],[0.08796296296296297],[1],[0],[0],[1.7472402999992482],['target'],1,001,2022-09-16_12h52.12.041,T3,2022.2.2,59.949953781356825,
121,0,121,0,5,315.9679920000053,315.9679920000053,0.013107399994623847,[0.4],[0.2916666666666667],[1],[0],[0],[1.7497930999961682],['target'],1,001,2022-09-16_12h52.12.041,T3,2022.2.2,59.949953781356825,
122,0,122,0,5,317.7370798000047,317.7370798000047,0.015670099994167686,[-0.18703703703703703],[0.05277777777777778],[1],[0],[0],[1.5957376000005752],['target'],1,001,2022-09-16_12h52.12.041,T3,2022.2.2,59.949953781356825,
123,0,123,0,5,319.35659979999764,319.35659979999764,0.018880899995565414,[0.1111111111111111],[0.48518518518518516],[1],[0],[0],[1.6424955999973463],['target'],1,001,2022-09-16_12h52.12.041,T3,2022.2.2,59.949953781356825,
124,0,124,0,5,321.0140212999977,321.0140212999977,0.013589500013040379,[0.21296296296296297],[-0.3851851851851852],[1],[0],[0],[1.6327075000008335],['target'],1,001,2022-09-16_12h52.12.041,T3,2022.2.2,59.949953781356825,
125,0,125,0,5,322.6632124000025,322.6632124000025,0.01359529999899678,[0.10555555555555556],[0.27037037037037037],[1],[0],[0],[1.5815672000026098],['target'],1,001,2022-09-16_12h52.12.041,T3,2022.2.2,59.949953781356825,
126,0,126,0,10,324.2776554000011,324.2776554000011,0.027077300008386374,[0.012962962962962963],[-0.3851851851851852],[1],[0],[0],[1.7349691000126768],['target'],1,001,2022-09-16_12h52.12.041,T3,2022.2.2,59.949953781356825,
127,0,127,0,5,326.0271778000024,326.0271778000024,0.01449230000434909,[-0.45092592592592595],[0.1814814814814815],[1],[0],[0],[1.6139591000101063],['target'],1,001,2022-09-16_12h52.12.041,T3,2022.2.2,59.949953781356825,
128,0,128,0,5,327.6570384999941,327.6570384999941,0.013670700005604886,[-0.20462962962962963],[-0.005555555555555556],[1],[0],[0],[1.3996497000043746],['target'],1,001,2022-09-16_12h52.12.041,T3,2022.2.2,59.949953781356825,
129,0,129,0,10,329.0887150000053,329.0887150000053,0.02522049999970477,[-0.14074074074074075],[0.11666666666666667],[1],[0],[0],[1.387476300005801],['target'],1,001,2022-09-16_12h52.12.041,T3,2022.2.2,59.949953781356825,
130,0,130,0,10,330.5313851999963,330.5313851999963,0.04371669999090955,[-0.032407407407407406],[-0.2740740740740741],[1],[0],[0],[1.6661125999962678],['target'],1,001,2022-09-16_12h52.12.041,T3,2022.2.2,59.949953781356825,
131,0,131,0,10,332.2219632000051,332.2219632000051,0.02765569998882711,[0.07592592592592592],[0.3824074074074074],[1],[0],[0],[1.6514495000010356],['target'],1,001,2022-09-16_12h52.12.041,T3,2022.2.2,59.949953781356825,
132,0,132,0,10,333.91159020000487,333.91159020000487,0.03436089999740943,[-0.175],[-0.18888888888888888],[1],[0],[0],[1.4449269000033382],['target'],1,001,2022-09-16_12h52.12.041,T3,2022.2.2,59.949953781356825,
133,0,133,0,10,335.385111399999,335.385111399999,0.025976899996749125,[0.29074074074074074],[-0.4444444444444444],[1],[0],[0],[2.3191323000064585],['target'],1,001,2022-09-16_12h52.12.041,T3,2022.2.2,59.949953781356825,
134,0,134,0,5,337.71470890000637,337.71470890000637,0.013250899995910004,[0.27870370370370373],[-0.1259259259259259],[1],[0],[0],[2.165923099993961],['target'],1,001,2022-09-16_12h52.12.041,T3,2022.2.2,59.949953781356825,
135,0,135,0,10,339.9148669999995,339.9148669999995,0.025921299995388836,[-0.24537037037037038],[-0.12777777777777777],[1],[0],[0],[1.3693598999961978],['target'],1,001,2022-09-16_12h52.12.041,T3,2022.2.2,59.949953781356825,
136,0,136,0,10,341.31229699999676,341.31229699999676,0.026459900007466786,[-0.45185185185185184],[-0.09351851851851851],[1],[0],[0],[2.1517511999991257],['target'],1,001,2022-09-16_12h52.12.041,T3,2022.2.2,59.949953781356825,
137,0,137,0,5,343.4782864000008,343.4782864000008,0.013279399994644336,[-0.020370370370370372],[-0.45740740740740743],[1],[0],[0],[3.1471848000073805],['target'],1,001,2022-09-16_12h52.12.041,T3,2022.2.2,59.949953781356825,
138,0,138,0,5,346.64084710000316,346.64084710000316,0.013488099997630343,[0.1935185185185185],[0.4324074074074074],[1],[0],[0],[1.5989445000013802],['target'],1,001,2022-09-16_12h52.12.041,T3,2022.2.2,59.949953781356825,
139,0,139,0,10,348.27407949999906,348.27407949999906,0.027304099989123642,[-0.20462962962962963],[0.020370370370370372],[1],[0],[0],[2.0176530000026105],['target'],1,001,2022-09-16_12h52.12.041,T3,2022.2.2,59.949953781356825,
140,0,140,0,10,350.32168579999416,350.32168579999416,0.028045699989888817,[0.4222222222222222],[0.35648148148148145],[1],[0],[0],[1.618055800005095],['target'],1,001,2022-09-16_12h52.12.041,T3,2022.2.2,59.949953781356825,
141,0,141,0,10,351.9706031999958,351.9706031999958,0.0271950000023935,[-0.48055555555555557],[0.34629629629629627],[1],[0],[0],[2.3676830000040354],['target'],1,001,2022-09-16_12h52.12.041,T3,2022.2.2,59.949953781356825,
142,0,142,0,5,354.35036240000045,354.35036240000045,0.014085899994825013,[-0.4638888888888889],[0.14814814814814814],[1],[0],[0],[1.3152123999898322],['target'],1,001,2022-09-16_12h52.12.041,T3,2022.2.2,59.949953781356825,
143,0,143,0,10,355.6992781000008,355.6992781000008,0.026568600005703047,[-0.12129629629629629],[0.1787037037037037],[1],[0],[0],[1.5193157000030624],['target'],1,001,2022-09-16_12h52.12.041,T3,2022.2.2,59.949953781356825,
144,0,144,0,10,357.2516922000068,357.2516922000068,0.030834100005449727,[-0.42407407407407405],[-0.18611111111111112],[1],[0],[0],[1.5970938000100432],['target'],1,001,2022-09-16_12h52.12.041,T3,2022.2.2,59.949953781356825,
145,0,145,0,5,358.8618235000031,358.8618235000031,0.013954599999124184,[-0.14351851851851852],[0.12962962962962962],[1],[0],[0],[1.2826021000073524],['target'],1,001,2022-09-16_12h52.12.041,T3,2022.2.2,59.949953781356825,
146,0,146,0,10,360.18046040000627,360.18046040000627,0.028843599997344427,[-0.2064814814814815],[0.023148148148148147],[1],[0],[0],[1.3666358000045875],['target'],1,001,2022-09-16_12h52.12.041,T3,2022.2.2,59.949953781356825,
147,0,147,0,5,361.57167109999864,361.57167109999864,0.022480100000393577,[0.3824074074074074],[0.3537037037037037],[1],[0],[0],[1.3886329999950249],['target'],1,001,2022-09-16_12h52.12.041,T3,2022.2.2,59.949953781356825,
148,0,148,0,10,363.012681799999,363.012681799999,0.04111930000362918,[0.13518518518518519],[-0.15648148148148147],[1],[0],[0],[1.6705781999917235],['target'],1,001,2022-09-16_12h52.12.041,T3,2022.2.2,59.949953781356825,
149,0,149,0,5,364.6905136999994,364.6905136999994,0.013082799996482208,[0.4638888888888889],[0.12222222222222222],[1],[0],[0],[1.549106299993582],['target'],1,001,2022-09-16_12h52.12.041,T3,2022.2.2,59.949953781356825,
150,0,150,0,10,366.273323100002,366.273323100002,0.027094699995359406,[-0.1574074074074074],[-0.18703703703703703],[1],[0],[0],[1.9515843000117457],['target'],1,001,2022-09-16_12h52.12.041,T3,2022.2.2,59.949953781356825,
151,0,151,0,10,368.2537105999945,368.2537105999945,0.025131700007477775,[-0.33425925925925926],[-0.13148148148148148],[1],[0],[0],[1.5368828999926336],['target'],1,001,2022-09-16_12h52.12.041,T3,2022.2.2,59.949953781356825,
152,0,152,0,10,369.8320456000074,369.8320456000074,0.03621439999551512,[0.26851851851851855],[0.03796296296296296],[1],[0],[0],[1.7751949000085006],['target'],1,001,2022-09-16_12h52.12.041,T3,2022.2.2,59.949953781356825,
153,0,153,0,10,371.6351835999958,371.6351835999958,0.028165600000647828,[-0.18518518518518517],[0.3527777777777778],[1],[0],[0],[1.7505354000022635],['target'],1,001,2022-09-16_12h52.12.041,T3,2022.2.2,59.949953781356825,
154,0,154,0,10,373.4290466999955,373.4290466999955,0.03633329999865964,[-0.46574074074074073],[0.2740740740740741],[1],[0],[0],[1.3251511000125902],['target'],1,001,2022-09-16_12h52.12.041,T3,2022.2.2,59.949953781356825,
155,0,155,0,5,374.76475129999744,374.76475129999744,0.013115000008838251,[-0.39814814814814814],[0.3611111111111111],[1],[0],[0],[1.649704199997359],['target'],1,001,2022-09-16_12h52.12.041,T3,2022.2.2,59.949953781356825,
156,0,156,0,10,376.4481303000066,376.4481303000066,0.027778999996371567,[-0.06851851851851852],[-0.175],[1],[0],[0],[1.4828088999929605],['target'],1,001,2022-09-16_12h52.12.041,T3,2022.2.2,59.949953781356825,
157,0,157,0,10,377.96772830000555,377.96772830000555,0.03220359999977518,[-0.462037037037037],[0.2796296296296296],[1],[0],[0],[1.7806338999944273],['target'],1,001,2022-09-16_12h52.12.041,T3,2022.2.2,59.949953781356825,
158,0,158,0,10,379.7761402000033,379.7761402000033,0.026502199994865805,[-0.18888888888888888],[0.009259259259259259],[1],[0],[0],[1.5020146999886492],['target'],1,001,2022-09-16_12h52.12.041,T3,2022.2.2,59.949953781356825,
159,0,159,0,10,381.3081510000047,381.3081510000047,0.025589700002456084,[-0.48148148148148145],[-0.2824074074074074],[1],[0],[0],[1.853644799994072],['target'],1,001,2022-09-16_12h52.12.041,T3,2022.2.2,59.949953781356825,
160,0,160,0,5,383.1746512999962,383.1746512999962,0.0140796999912709,[0.18888888888888888],[0.14629629629629629],[1],[0],[0],[1.6981644000043161],['target'],1,001,2022-09-16_12h52.12.041,T3,2022.2.2,59.949953781356825,
161,0,161,0,5,384.88888689999294,384.88888689999294,0.013430499995592982,[0.18981481481481483],[0.35],[1],[0],[0],[1.433200500003295],['target'],1,001,2022-09-16_12h52.12.041,T3,2022.2.2,59.949953781356825,
162,0,162,0,5,386.3370916999993,386.3370916999993,0.01335010000912007,[0.03148148148148148],[-0.3861111111111111],[1],[0],[0],[1.6313985000015236],['target'],1,001,2022-09-16_12h52.12.041,T3,2022.2.2,59.949953781356825,
163,0,163,0,5,387.98541579999437,387.98541579999437,0.013288300004205666,[-0.1037037037037037],[-0.28703703703703703],[1],[0],[0],[1.731845100002829],['target'],1,001,2022-09-16_12h52.12.041,T3,2022.2.2,59.949953781356825,
164,0,164,0,10,389.75399959999777,389.75399959999777,0.029295500004081987,[-0.05462962962962963],[0.017592592592592594],[1],[0],[0],[1.2986470000032568],['target'],1,001,2022-09-16_12h52.12.041,T3,2022.2.2,59.949953781356825,
165,0,165,0,10,391.08193869999377,391.08193869999377,0.025267500008339994,[-0.44907407407407407],[-0.39351851851851855],[1],[0],[0],[1.9037276999879396],['target'],1,001,2022-09-16_12h52.12.041,T3,2022.2.2,59.949953781356825,
166,0,166,0,5,392.9966812000057,392.9966812000057,0.012888799989013933,[0.2814814814814815],[0.19444444444444445],[1],[0],[0],[1.5332611999911023],['target'],1,001,2022-09-16_12h52.12.041,T3,2022.2.2,59.949953781356825,
167,0,167,0,5,394.54546120000305,394.54546120000305,0.013219400003436022,[0.017592592592592594],[-0.12685185185185185],[1],[0],[0],[1.4165899000072386],['target'],1,001,2022-09-16_12h52.12.041,T3,2022.2.2,59.949953781356825,
168,0,168,0,10,395.99448239999765,395.99448239999765,0.02534449999802746,[-0.06111111111111111],[-0.18796296296296297],[1],[0],[0],[1.2217560999997659],['target'],1,001,2022-09-16_12h52.12.041,T3,2022.2.2,59.949953781356825,
169,0,169,0,5,397.2290292999969,397.2290292999969,0.014073099999222904,[0.24259259259259258],[-0.03425925925925926],[1],[0],[0],[1.547278500001994],['target'],1,001,2022-09-16_12h52.12.041,T3,2022.2.2,59.949953781356825,
170,0,170,0,5,398.7925680000044,398.7925680000044,0.013491200006683357,[-0.42314814814814816],[0.4888888888888889],[1],[0],[0],[2.563983100000769],['target'],1,001,2022-09-16_12h52.12.041,T3,2022.2.2,59.949953781356825,
171,0,171,0,5,401.3725912999944,401.3725912999944,0.0139632999926107,[0.30462962962962964],[-0.3824074074074074],[1],[0],[0],[1.8314169000077527],['target'],1,001,2022-09-16_12h52.12.041,T3,2022.2.2,59.949953781356825,
172,0,172,0,10,403.23836430000665,403.23836430000665,0.026997000008122995,[0.27314814814814814],[-0.05185185185185185],[1],[0],[0],[1.7021717000025092],['target'],1,001,2022-09-16_12h52.12.041,T3,2022.2.2,59.949953781356825,
173,0,173,0,10,404.9718985000072,404.9718985000072,0.028829699993366376,[-0.38796296296296295],[-0.21481481481481482],[1],[0],[0],[1.4671368000126677],['target'],1,001,2022-09-16_12h52.12.041,T3,2022.2.2,59.949953781356825,
174,0,174,0,10,406.46860279999964,406.46860279999964,0.024634899993543513,[0.40925925925925927],[0.4111111111111111],[1],[0],[0],[1.8204323000099976],['target'],1,001,2022-09-16_12h52.12.041,T3,2022.2.2,59.949953781356825,
175,0,175,0,5,408.2986560999998,408.2986560999998,0.013043900005868636,[0.10833333333333334],[-0.11666666666666667],[1],[0],[0],[1.4527035999926738],['target'],1,001,2022-09-16_12h52.12.041,T3,2022.2.2,59.949953781356825,
176,0,176,0,10,409.7836698000028,409.7836698000028,0.025209100000211038,[0.1925925925925926],[-0.425],[1],[0],[0],[1.9336379000014858],['target'],1,001,2022-09-16_12h52.12.041,T3,2022.2.2,59.949953781356825,
177,0,177,0,10,411.7456627000065,411.7456627000065,0.02520629999344237,[-0.1814814814814815],[-0.03333333333333333],[1],[0],[0],[1.4540331999887712],['target'],1,001,2022-09-16_12h52.12.041,T3,2022.2.2,59.949953781356825,
178,0,178,0,10,413.2305236999964,413.2305236999964,0.026774700003443286,[-0.25277777777777777],[-0.17407407407407408],[1],[0],[0],[1.569051300000865],['target'],1,001,2022-09-16_12h52.12.041,T3,2022.2.2,59.949953781356825,
179,0,179,0,10,414.8259989999933,414.8259989999933,0.02554640000744257,[0.03518518518518519],[-0.33055555555555555],[1],[0],[0],[1.6041070999926887],['target'],1,001,2022-09-16_12h52.12.041,T3,2022.2.2,59.949953781356825,
180,0,180,0,10,416.4591635999968,416.4591635999968,0.026254800002789125,[0.17962962962962964],[-0.3194444444444444],[1],[0],[0],[1.852452599996468],['target'],1,001,2022-09-16_12h52.12.041,T3,2022.2.2,59.949953781356825,
181,0,181,0,10,418.3435615000053,418.3435615000053,0.02715629999875091,[-0.412962962962963],[-0.3296296296296296],[1],[0],[0],[1.6355043999938061],['target'],1,001,2022-09-16_12h52.12.041,T3,2022.2.2,59.949953781356825,
182,0,182,0,10,420.0043616000039,420.0043616000039,0.025461299999733455,[-0.4546296296296296],[0.43425925925925923],[1],[0],[0],[1.7037469999922905],['target'],1,001,2022-09-16_12h52.12.041,T3,2022.2.2,59.949953781356825,
183,0,183,0,10,421.7367591999937,421.7367591999937,0.025653700009570457,[-0.45],[0.43425925925925923],[1],[0],[0],[1.5195227999938652],['target'],1,001,2022-09-16_12h52.12.041,T3,2022.2.2,59.949953781356825,
184,0,184,0,5,423.26985660000355,423.26985660000355,0.014206399995600805,[-0.4185185185185185],[-0.15833333333333333],[1],[0],[0],[1.4980233999958728],['target'],1,001,2022-09-16_12h52.12.041,T3,2022.2.2,59.949953781356825,
185,0,185,0,10,424.8001133999933,424.8001133999933,0.025666899993666448,[0.34629629629629627],[0.22685185185185186],[1],[0],[0],[1.6199058999918634],['target'],1,001,2022-09-16_12h52.12.041,T3,2022.2.2,59.949953781356825,
186,0,186,0,10,426.44811070000287,426.44811070000287,0.02508740000484977,[0.4861111111111111],[0.2074074074074074],[1],[0],[0],[2.3368468999979086],['target'],1,001,2022-09-16_12h52.12.041,T3,2022.2.2,59.949953781356825,
187,0,187,0,10,428.81606169999577,428.81606169999577,0.02813140000216663,[-0.03611111111111111],[-0.27037037037037037],[1],[0],[0],[1.5171951000083936],['target'],1,001,2022-09-16_12h52.12.041,T3,2022.2.2,59.949953781356825,
188,0,188,0,10,430.36244130000705,430.36244130000705,0.0264039000030607,[0.14629629629629629],[0.03981481481481482],[1],[0],[0],[1.3369501999986824],['target'],1,001,2022-09-16_12h52.12.041,T3,2022.2.2,59.949953781356825,
189,0,189,0,10,431.7261659999931,431.7261659999931,0.02498370000103023,[-0.27314814814814814],[0.3814814814814815],[1],[0],[0],[1.5709403000073507],['target'],1,001,2022-09-16_12h52.12.041,T3,2022.2.2,59.949953781356825,
190,0,190,0,5,433.31103599999915,433.31103599999915,0.013735000000451691,[0.2564814814814815],[-0.19537037037037036],[1],[0],[0],[1.6163993999944068],['target'],1,001,2022-09-16_12h52.12.041,T3,2022.2.2,59.949953781356825,
191,0,191,0,5,434.94307789999584,434.94307789999584,0.013710300001548603,[0.47685185185185186],[0.11944444444444445],[1],[0],[0],[1.730042900002445],['target'],1,001,2022-09-16_12h52.12.041,T3,2022.2.2,59.949953781356825,
192,0,192,0,5,436.6897207000002,436.6897207000002,0.013237799998023547,[0.362962962962963],[-0.23425925925925925],[1],[0],[0],[1.4827402000082657],['target'],1,001,2022-09-16_12h52.12.041,T3,2022.2.2,59.949953781356825,
193,0,193,0,5,438.1890166999947,438.1890166999947,0.013112599990563467,[-0.3592592592592593],[-0.18981481481481483],[1],[0],[0],[1.4322555999970064],['target'],1,001,2022-09-16_12h52.12.041,T3,2022.2.2,59.949953781356825,
194,0,194,0,5,439.6368160999991,439.6368160999991,0.01278689999890048,[-0.2101851851851852],[0.3888888888888889],[1],[0],[0],[1.6989897000021301],['target'],1,001,2022-09-16_12h52.12.041,T3,2022.2.2,59.949953781356825,
195,0,195,0,5,441.35220720000507,441.35220720000507,0.013980400006403215,[0.40185185185185185],[-0.2851851851851852],[1],[0],[0],[1.5818533999990905],['target'],1,001,2022-09-16_12h52.12.041,T3,2022.2.2,59.949953781356825,
196,0,196,0,10,442.96978250000393,442.96978250000393,0.029003000003285706,[-0.08796296296296297],[0.2675925925925926],[1],[0],[0],[1.5673060000117403],['target'],1,001,2022-09-16_12h52.12.041,T3,2022.2.2,59.949953781356825,
197,0,197,0,5,444.5499298000068,444.5499298000068,0.013296200006152503,[-0.22407407407407406],[-0.29259259259259257],[1],[0],[0],[1.515069200002472],['target'],1,001,2022-09-16_12h52.12.041,T3,2022.2.2,59.949953781356825,
198,0,198,0,5,446.08253559999866,446.08253559999866,0.01450710000062827,[-0.22314814814814815],[-0.36666666666666664],[1],[0],[0],[1.131045099988114],['target'],1,001,2022-09-16_12h52.12.041,T3,2022.2.2,59.949953781356825,
199,0,199,0,10,447.2457607999968,447.2457607999968,0.02516509999986738,[0.027777777777777776],[0.05555555555555555],[1],[0],[0],[1.637964000008651],['target'],1,001,2022-09-16_12h52.12.041,T3,2022.2.2,59.949953781356825,
