trials.thisRepN,trials.thisTrialN,trials.thisN,trials.thisIndex,polygon.started,key_resp.started,polygon.stopped,key_resp.keys,key_resp.corr,key_resp.rt,tilt,participant,session,date,expName,psychopyVersion,frameRate,
0,0,0,0,54.75324130000081,55.7134498000014,55.76607589999912,up,1,0.5157438999995065,0,1,001,2022-09-14_23h13.57.369,T2,2022.2.2,60.05291863286075,
1,0,1,0,56.26006380000035,57.26460479999878,57.26460479999878,up,1,0.6180471999978181,0,1,001,2022-09-14_23h13.57.369,T2,2022.2.2,60.05291863286075,
2,0,2,0,57.91386849999981,58.91312990000006,58.91312990000006,up,1,0.4935330000007525,0,1,001,2022-09-14_23h13.57.369,T2,2022.2.2,60.05291863286075,
3,0,3,0,59.428955999999744,60.42835159999959,60.42835159999959,down,1,0.5280988999984402,2,1,001,2022-09-14_23h13.57.369,T2,2022.2.2,60.05291863286075,
4,0,4,0,60.97758780000004,61.97685529999944,61.97685529999944,up,1,0.7848967999998422,0,1,001,2022-09-14_23h13.57.369,T2,2022.2.2,60.05291863286075,
5,0,5,0,62.792870699999185,63.791960200000176,63.80856750000021,up,1,0.6170709999969404,0,1,001,2022-09-14_23h13.57.369,T2,2022.2.2,60.05291863286075,
6,0,6,0,64.44136259999868,65.44043539999984,65.45704579999801,down,1,0.5134786999988137,2,1,001,2022-09-14_23h13.57.369,T2,2022.2.2,60.05291863286075,
7,0,7,0,65.97300489999907,66.97205300000132,66.97205300000132,up,1,0.45721209999828716,0,1,001,2022-09-14_23h13.57.369,T2,2022.2.2,60.05291863286075,
8,0,8,0,67.45487940000021,68.45426139999836,68.45426139999836,up,1,0.6349732999988191,0,1,001,2022-09-14_23h13.57.369,T2,2022.2.2,60.05291863286075,
9,0,9,0,69.1200960999995,70.11946619999799,70.11946619999799,down,1,0.7533477999968454,3,1,001,2022-09-14_23h13.57.369,T2,2022.2.2,60.05291863286075,
10,0,10,0,70.90190760000041,71.90114900000117,71.90114900000117,up,1,0.5744252999975288,0,1,001,2022-09-14_23h13.57.369,T2,2022.2.2,60.05291863286075,
11,0,11,0,72.50019419999808,73.49966760000098,73.49966760000098,up,1,0.6113669999976992,0,1,001,2022-09-14_23h13.57.369,T2,2022.2.2,60.05291863286075,
12,0,12,0,74.13225650000095,75.13146749999942,75.13146749999942,down,1,0.6888496999963536,2,1,001,2022-09-14_23h13.57.369,T2,2022.2.2,60.05291863286075,
13,0,13,0,75.84723509999822,76.84651680000024,76.84651680000024,up,1,0.6008424999999988,0,1,001,2022-09-14_23h13.57.369,T2,2022.2.2,60.05291863286075,
14,0,14,0,77.47916799999803,78.47813540000061,78.47813540000061,down,1,0.8778151000005892,2,1,001,2022-09-14_23h13.57.369,T2,2022.2.2,60.05291863286075,
15,0,15,0,79.37714459999916,80.37634130000151,80.39295539999875,up,0,0.7793596999981673,1,1,001,2022-09-14_23h13.57.369,T2,2022.2.2,60.05291863286075,
16,0,16,0,81.1753624999983,82.17473279999831,82.17473279999831,down,1,0.8396215999964625,-5,1,001,2022-09-14_23h13.57.369,T2,2022.2.2,60.05291863286075,
17,0,17,0,83.0405400999989,84.03967850000117,84.03967850000117,up,1,0.7574071999988519,0,1,001,2022-09-14_23h13.57.369,T2,2022.2.2,60.05291863286075,
18,0,18,0,84.82224950000091,85.8213164000008,85.83795720000126,up,0,1.2727788999982295,2,1,001,2022-09-14_23h13.57.369,T2,2022.2.2,60.05291863286075,
19,0,19,0,87.12015629999951,88.1193056000011,88.1193056000011,down,1,0.6862014999969688,4,1,001,2022-09-14_23h13.57.369,T2,2022.2.2,60.05291863286075,
20,0,20,0,88.83491470000081,89.83436240000083,89.83436240000083,up,1,0.6398515999972005,0,1,001,2022-09-14_23h13.57.369,T2,2022.2.2,60.05291863286075,
21,0,21,0,90.50011040000027,91.49966080000013,91.49966080000013,up,1,0.6058071999977983,0,1,001,2022-09-14_23h13.57.369,T2,2022.2.2,60.05291863286075,
22,0,22,0,92.13200209999923,93.13117720000082,93.13117720000082,up,1,0.8525438999968173,0,1,001,2022-09-14_23h13.57.369,T2,2022.2.2,60.05291863286075,
23,0,23,0,94.01392040000064,95.01282160000119,95.01282160000119,down,1,0.679450599996926,3,1,001,2022-09-14_23h13.57.369,T2,2022.2.2,60.05291863286075,
24,0,24,0,95.71225599999889,96.71135190000132,96.72806529999798,up,1,0.7149963999981992,0,1,001,2022-09-14_23h13.57.369,T2,2022.2.2,60.05291863286075,
25,0,25,0,97.44396609999967,98.44319170000017,98.45976810000138,down,1,1.2829195999984222,-3,1,001,2022-09-14_23h13.57.369,T2,2022.2.2,60.05291863286075,
26,0,26,0,99.7582442999992,100.75750120000157,100.75750120000157,up,1,0.602259100000083,0,1,001,2022-09-14_23h13.57.369,T2,2022.2.2,60.05291863286075,
27,0,27,0,101.39013329999943,102.38960550000047,102.38960550000047,down,1,0.7147972999955527,4,1,001,2022-09-14_23h13.57.369,T2,2022.2.2,60.05291863286075,
28,0,28,0,103.12186949999887,104.12107269999979,104.12107269999979,down,1,1.4664419000000635,3,1,001,2022-09-14_23h13.57.369,T2,2022.2.2,60.05291863286075,
29,0,29,0,105.61994950000008,106.61871579999934,106.63557159999982,up,1,0.43458449999889126,0,1,001,2022-09-14_23h13.57.369,T2,2022.2.2,60.05291863286075,
30,0,30,0,107.08488429999852,108.08380639999814,108.08380639999814,down,1,0.6014602999966883,3,1,001,2022-09-14_23h13.57.369,T2,2022.2.2,60.05291863286075,
31,0,31,0,108.71675889999824,109.71604379999917,109.71604379999917,down,1,0.7161575999998604,-5,1,001,2022-09-14_23h13.57.369,T2,2022.2.2,60.05291863286075,
32,0,32,0,110.44846999999936,111.4479562000015,111.4479562000015,down,1,0.7082936999977392,-3,1,001,2022-09-14_23h13.57.369,T2,2022.2.2,60.05291863286075,
33,0,33,0,112.18025919999855,113.17948830000023,113.19606719999865,down,1,0.7320551999982854,3,1,001,2022-09-14_23h13.57.369,T2,2022.2.2,60.05291863286075,
34,0,34,0,113.92860220000148,114.9278759000008,114.9278759000008,up,1,0.49301939999713795,0,1,001,2022-09-14_23h13.57.369,T2,2022.2.2,60.05291863286075,
35,0,35,0,115.4438728999994,116.44301369999812,116.44301369999812,up,1,0.7633595999977842,0,1,001,2022-09-14_23h13.57.369,T2,2022.2.2,60.05291863286075,
36,0,36,0,117.2255679000009,118.22477919999801,118.24149350000152,down,1,0.6670023999977275,3,1,001,2022-09-14_23h13.57.369,T2,2022.2.2,60.05291863286075,
37,0,37,0,118.92399840000144,119.92314690000057,119.9396960999984,down,1,0.6331097999973281,-5,1,001,2022-09-14_23h13.57.369,T2,2022.2.2,60.05291863286075,
38,0,38,0,120.57229290000032,121.57139199999801,121.57139199999801,up,0,0.8719257999982801,1,1,001,2022-09-14_23h13.57.369,T2,2022.2.2,60.05291863286075,
39,0,39,0,122.47080239999923,123.46988359999887,123.4865753999984,up,1,0.5398978999983228,0,1,001,2022-09-14_23h13.57.369,T2,2022.2.2,60.05291863286075,
40,0,40,0,124.03589809999903,125.03516899999886,125.05169709999973,up,1,0.5774481999978889,0,1,001,2022-09-14_23h13.57.369,T2,2022.2.2,60.05291863286075,
41,0,41,0,125.6340326999998,126.63344349999898,126.63344349999898,up,1,0.6235903999986476,0,1,001,2022-09-14_23h13.57.369,T2,2022.2.2,60.05291863286075,
42,0,42,0,127.28275880000001,128.28186939999796,128.28186939999796,up,1,0.6130768999973952,0,1,001,2022-09-14_23h13.57.369,T2,2022.2.2,60.05291863286075,
43,0,43,0,128.91477419999865,129.91398290000143,129.9304411000012,down,1,0.5453600999971968,-2,1,001,2022-09-14_23h13.57.369,T2,2022.2.2,60.05291863286075,
44,0,44,0,130.48002989999804,131.47899529999995,131.47899529999995,down,1,0.6055653999974311,3,1,001,2022-09-14_23h13.57.369,T2,2022.2.2,60.05291863286075,
45,0,45,0,132.11163840000154,133.1109007999985,133.1109007999985,up,0,0.5581092999964312,1,1,001,2022-09-14_23h13.57.369,T2,2022.2.2,60.05291863286075,
46,0,46,0,133.69395950000035,134.6927074999985,134.70933030000015,down,1,0.6917266999989806,-5,1,001,2022-09-14_23h13.57.369,T2,2022.2.2,60.05291863286075,
47,0,47,0,135.40858369999842,136.4078507999984,136.4078507999984,down,1,0.8111060999981419,4,1,001,2022-09-14_23h13.57.369,T2,2022.2.2,60.05291863286075,
48,0,48,0,137.24058090000108,138.23943449999933,138.25603150000097,up,1,0.6223399999980757,0,1,001,2022-09-14_23h13.57.369,T2,2022.2.2,60.05291863286075,
49,0,49,0,138.8889893000014,139.8878694999985,139.90457510000124,up,1,0.5351144999985991,0,1,001,2022-09-14_23h13.57.369,T2,2022.2.2,60.05291863286075,
50,0,50,0,140.45403720000104,141.45322640000086,141.4699341000014,down,1,0.6491003000010096,-3,1,001,2022-09-14_23h13.57.369,T2,2022.2.2,60.05291863286075,
51,0,51,0,142.1189900999998,143.1184202000004,143.1184202000004,up,1,0.6866500999967684,0,1,001,2022-09-14_23h13.57.369,T2,2022.2.2,60.05291863286075,
52,0,52,0,143.83415830000013,144.8334681999986,144.8334681999986,up,1,0.6671175000010408,0,1,001,2022-09-14_23h13.57.369,T2,2022.2.2,60.05291863286075,
53,0,53,0,145.5325741000015,146.53172450000056,146.53172450000056,up,1,0.6828354999997828,0,1,001,2022-09-14_23h13.57.369,T2,2022.2.2,60.05291863286075,
54,0,54,0,147.2310069999985,148.23009459999957,148.23009459999957,down,0,1.4152594999977737,0,1,001,2022-09-14_23h13.57.369,T2,2022.2.2,60.05291863286075,
55,0,55,0,149.66207519999807,150.6612395000011,150.6612395000011,down,1,0.6482207999979437,-3,1,001,2022-09-14_23h13.57.369,T2,2022.2.2,60.05291863286075,
56,0,56,0,151.3272967999983,152.32654410000032,152.32654410000032,up,1,0.5877120999975887,0,1,001,2022-09-14_23h13.57.369,T2,2022.2.2,60.05291863286075,
57,0,57,0,152.9423956999999,153.9415412999988,153.95823110000129,up,1,0.6287449999981618,0,1,001,2022-09-14_23h13.57.369,T2,2022.2.2,60.05291863286075,
58,0,58,0,154.5906896000015,155.59053119999953,155.59053119999953,down,1,0.730261699998664,-2,1,001,2022-09-14_23h13.57.369,T2,2022.2.2,60.05291863286075,
59,0,59,0,156.33921579999878,157.33825459999935,157.35521199999857,up,1,0.7899077999973088,0,1,001,2022-09-14_23h13.57.369,T2,2022.2.2,60.05291863286075,
60,0,60,0,158.15423590000137,159.1533933999999,159.1533933999999,up,0,1.216341299998021,-2,1,001,2022-09-14_23h13.57.369,T2,2022.2.2,60.05291863286075,
61,0,61,0,160.40231249999852,161.4012290999999,161.4178396999996,up,1,0.6246194999985164,0,1,001,2022-09-14_23h13.57.369,T2,2022.2.2,60.05291863286075,
62,0,62,0,162.0506079000006,163.04983340000035,163.06636399999843,down,1,0.6127463999982865,-5,1,001,2022-09-14_23h13.57.369,T2,2022.2.2,60.05291863286075,
63,0,63,0,163.68253379999805,164.68150650000098,164.68150650000098,up,1,0.6253378999972483,0,1,001,2022-09-14_23h13.57.369,T2,2022.2.2,60.05291863286075,
64,0,64,0,165.33093430000008,166.3301137999988,166.34667659999832,up,1,0.6974197000017739,0,1,001,2022-09-14_23h13.57.369,T2,2022.2.2,60.05291863286075,
65,0,65,0,167.04593609999938,168.04504630000156,168.04504630000156,up,1,0.7355705999980273,0,1,001,2022-09-14_23h13.57.369,T2,2022.2.2,60.05291863286075,
66,0,66,0,168.81107849999898,169.81005619999996,169.8268891000007,up,1,0.6643033000000287,0,1,001,2022-09-14_23h13.57.369,T2,2022.2.2,60.05291863286075,
67,0,67,0,170.49279540000134,171.49220720000085,171.49220720000085,down,1,0.6931336999987252,-4,1,001,2022-09-14_23h13.57.369,T2,2022.2.2,60.05291863286075,
68,0,68,0,172.20791299999837,173.20691670000087,173.22367269999813,up,1,0.8738326999991841,0,1,001,2022-09-14_23h13.57.369,T2,2022.2.2,60.05291863286075,
69,0,69,0,174.10592520000137,175.10536489999868,175.10536489999868,down,1,0.5878955999978643,-5,1,001,2022-09-14_23h13.57.369,T2,2022.2.2,60.05291863286075,
70,0,70,0,175.72112090000155,176.7203922000008,176.7203922000008,down,1,0.664173999997729,4,1,001,2022-09-14_23h13.57.369,T2,2022.2.2,60.05291863286075,
71,0,71,0,177.40314450000005,178.40229669999826,178.41884809999829,up,0,0.6444720999970741,1,1,001,2022-09-14_23h13.57.369,T2,2022.2.2,60.05291863286075,
72,0,72,0,179.0690269000006,180.06715650000115,180.08399469999858,up,0,0.689799599997059,1,1,001,2022-09-14_23h13.57.369,T2,2022.2.2,60.05291863286075,
73,0,73,0,180.78323439999804,181.78262249999898,181.78262249999898,up,1,0.7032011999981478,0,1,001,2022-09-14_23h13.57.369,T2,2022.2.2,60.05291863286075,
74,0,74,0,182.5145811000002,183.51421950000076,183.51421950000076,down,1,0.8371642999991309,-2,1,001,2022-09-14_23h13.57.369,T2,2022.2.2,60.05291863286075,
75,0,75,0,184.38003019999815,185.3791158999993,185.3957378999985,down,0,0.5182471999978588,0,1,001,2022-09-14_23h13.57.369,T2,2022.2.2,60.05291863286075,
76,0,76,0,185.92832540000018,186.92751280000084,186.92751280000084,up,1,0.6905698999980814,0,1,001,2022-09-14_23h13.57.369,T2,2022.2.2,60.05291863286075,
77,0,77,0,187.6434765999984,188.64269309999872,188.64269309999872,down,1,1.3694614000014553,-5,1,001,2022-09-14_23h13.57.369,T2,2022.2.2,60.05291863286075,
78,0,78,0,190.0413096000011,191.04045079999923,191.04045079999923,down,0,0.6555343999971228,0,1,001,2022-09-14_23h13.57.369,T2,2022.2.2,60.05291863286075,
79,0,79,0,191.72297849999813,192.72226379999847,192.72226379999847,up,1,0.8690256000008958,0,1,001,2022-09-14_23h13.57.369,T2,2022.2.2,60.05291863286075,
80,0,80,0,193.62128279999888,194.62052910000057,194.63724379999985,down,1,0.6817679999985558,4,1,001,2022-09-14_23h13.57.369,T2,2022.2.2,60.05291863286075,
81,0,81,0,195.31965339999806,196.31880570000067,196.31880570000067,down,1,0.7503471999953035,2,1,001,2022-09-14_23h13.57.369,T2,2022.2.2,60.05291863286075,
82,0,82,0,197.10144740000032,198.1004842000002,198.11730499999976,down,0,1.0151481999964744,0,1,001,2022-09-14_23h13.57.369,T2,2022.2.2,60.05291863286075,
83,0,83,0,199.13272439999855,200.1319755000004,200.1319755000004,up,1,0.684929099999863,0,1,001,2022-09-14_23h13.57.369,T2,2022.2.2,60.05291863286075,
84,0,84,0,200.84809459999815,201.8469202999986,201.86377250000078,up,1,0.8880984999959765,0,1,001,2022-09-14_23h13.57.369,T2,2022.2.2,60.05291863286075,
85,0,85,0,202.76296359999833,203.76195780000126,203.77872489999936,up,1,1.1860697999982222,0,1,001,2022-09-14_23h13.57.369,T2,2022.2.2,60.05291863286075,
86,0,86,0,204.9775626999981,205.97664870000153,205.99338160000116,down,1,0.39191529999880004,3,1,001,2022-09-14_23h13.57.369,T2,2022.2.2,60.05291863286075,
87,0,87,0,206.39263089999804,207.3917533999993,207.3917533999993,down,1,0.7439059999960591,-3,1,001,2022-09-14_23h13.57.369,T2,2022.2.2,60.05291863286075,
88,0,88,0,208.15771210000094,209.15700669999933,209.15700669999933,down,0,0.5585230999968189,0,1,001,2022-09-14_23h13.57.369,T2,2022.2.2,60.05291863286075,
89,0,89,0,209.73955859999842,210.73884389999876,210.73884389999876,up,1,0.5452944999960891,0,1,001,2022-09-14_23h13.57.369,T2,2022.2.2,60.05291863286075,
90,0,90,0,211.30479660000128,212.30397200000152,212.30397200000152,down,1,0.8126220999984071,-4,1,001,2022-09-14_23h13.57.369,T2,2022.2.2,60.05291863286075,
91,0,91,0,213.13635179999983,214.13599890000114,214.13599890000114,down,1,0.5171330999983184,-5,1,001,2022-09-14_23h13.57.369,T2,2022.2.2,60.05291863286075,
92,0,92,0,214.6851992999982,215.68415119999918,215.70084779999888,up,1,0.7750040999999328,0,1,001,2022-09-14_23h13.57.369,T2,2022.2.2,60.05291863286075,
93,0,93,0,216.48328179999953,217.4826385999986,217.4826385999986,down,1,0.5081334999995306,4,1,001,2022-09-14_23h13.57.369,T2,2022.2.2,60.05291863286075,
94,0,94,0,218.01546400000007,219.01449199999843,219.03125010000076,down,1,0.8166926999983843,2,1,001,2022-09-14_23h13.57.369,T2,2022.2.2,60.05291863286075,
95,0,95,0,219.86364569999932,220.86261809999996,220.8795222000008,up,1,0.7374219999983325,0,1,001,2022-09-14_23h13.57.369,T2,2022.2.2,60.05291863286075,
96,0,96,0,221.62876880000113,222.62793059999967,222.6446102000009,up,1,0.7045645999969565,0,1,001,2022-09-14_23h13.57.369,T2,2022.2.2,60.05291863286075,
97,0,97,0,223.3604439999981,224.35940990000017,224.37618210000073,down,1,0.9805797999979404,-5,1,001,2022-09-14_23h13.57.369,T2,2022.2.2,60.05291863286075,
98,0,98,0,225.35857039999973,226.3576463999998,226.37430120000136,up,1,0.9276714000006905,0,1,001,2022-09-14_23h13.57.369,T2,2022.2.2,60.05291863286075,
99,0,99,0,227.30638049999834,228.30591849999837,228.30591849999837,down,1,0.9143507999979192,-4,1,001,2022-09-14_23h13.57.369,T2,2022.2.2,60.05291863286075,
