pos,corr_resp,trials.thisRepN,trials.thisTrialN,trials.thisN,trials.thisIndex,trials_2.thisRepN,trials_2.thisTrialN,trials_2.thisN,trials_2.thisIndex,fixation.started,line1.started,line2.started,line3.started,line4.started,fixation.stopped,probe.started,key_resp.started,key_resp.keys,key_resp.corr,key_resp.rt,participant,session,date,expName,psychopyVersion,frameRate,
-50,x,0,0,0,0,,,,,51.88269610001589,52.64796970001771,52.64796970001771,52.64796970001771,52.64796970001771,52.89795780001441,53.647139100008644,53.647139100008644,x,1,1.1074453000037465,testrun4,001,2022-09-30_10h58.43.546,T4,2022.2.2,60.052774377987404,
150,v,0,1,1,1,,,,,54.79479879999417,55.795223299995996,55.795223299995996,55.795223299995996,55.795223299995996,55.795223299995996,56.79426590001094,56.79426590001094,v,1,0.9371580999868456,testrun4,001,2022-09-30_10h58.43.546,T4,2022.2.2,60.052774377987404,
50,c,0,2,2,2,,,,,57.759796300000744,58.75892960000783,58.75892960000783,58.75892960000783,58.75892960000783,58.75892960000783,59.758264900010545,59.758264900010545,c,1,0.7900940999970771,testrun4,001,2022-09-30_10h58.43.546,T4,2022.2.2,60.052774377987404,
-150,z,0,3,3,3,,,,,60.57433890001266,61.57337630001712,61.57337630001712,61.57337630001712,61.57337630001712,61.57337630001712,62.572256200015545,62.572256200015545,z,1,0.48804500000551343,testrun4,001,2022-09-30_10h58.43.546,T4,2022.2.2,60.052774377987404,
-50,x,1,0,4,0,,,,,63.088598000002094,64.08746619999874,64.08746619999874,64.08746619999874,64.08746619999874,64.1042662000109,65.08672260001185,65.08672260001185,x,1,0.7914281999983359,testrun4,001,2022-09-30_10h58.43.546,T4,2022.2.2,60.052774377987404,
150,v,1,1,5,1,,,,,65.9024356000009,66.90161010000156,66.90161010000156,66.90161010000156,66.90161010000156,66.90161010000156,67.90033619999303,67.90033619999303,v,1,0.3514024000032805,testrun4,001,2022-09-30_10h58.43.546,T4,2022.2.2,60.052774377987404,
50,c,1,2,6,2,,,,,68.28368809999665,69.28283660000307,69.28283660000307,69.28283660000307,69.28283660000307,69.28283660000307,70.28186069999356,70.28186069999356,c,1,0.4735103999846615,testrun4,001,2022-09-30_10h58.43.546,T4,2022.2.2,60.052774377987404,
-150,z,1,3,7,3,,,,,70.7813407999929,71.78050620001159,71.78050620001159,71.78050620001159,71.78050620001159,71.78050620001159,72.77952599999844,72.77952599999844,z,1,0.31509920000098646,testrun4,001,2022-09-30_10h58.43.546,T4,2022.2.2,60.052774377987404,
-50,x,2,0,8,0,,,,,73.11243480001576,74.11158980001346,74.11158980001346,74.11158980001346,74.11158980001346,74.11158980001346,75.11053060000995,75.11053060000995,x,1,0.7999578999879304,testrun4,001,2022-09-30_10h58.43.546,T4,2022.2.2,60.052774377987404,
150,v,2,1,9,1,,,,,75.9433617000177,76.94230059999973,76.94230059999973,76.94230059999973,76.94230059999973,76.95886680000694,77.94124750001356,77.94124750001356,v,1,0.704871699999785,testrun4,001,2022-09-30_10h58.43.546,T4,2022.2.2,60.052774377987404,
50,c,2,2,10,2,,,,,78.67415920001804,79.6731856999977,79.6731856999977,79.6731856999977,79.6731856999977,79.68989440001315,80.67219310000655,80.67219310000655,c,1,0.9006766999955289,testrun4,001,2022-09-30_10h58.43.546,T4,2022.2.2,60.052774377987404,
-150,z,2,3,11,3,,,,,81.60466660000384,82.6037353000138,82.6037353000138,82.6037353000138,82.6037353000138,82.6037353000138,83.60281260000193,83.60281260000193,z,1,0.34946910000871867,testrun4,001,2022-09-30_10h58.43.546,T4,2022.2.2,60.052774377987404,
-50,x,3,0,12,0,,,,,83.96906679999665,84.96796969999559,84.96796969999559,84.96796969999559,84.96796969999559,84.96796969999559,85.96730990000651,85.96730990000651,x,1,1.1221461000095587,testrun4,001,2022-09-30_10h58.43.546,T4,2022.2.2,60.052774377987404,
150,v,3,1,13,1,,,,,87.11634579999372,88.11537549999775,88.11537549999775,88.11537549999775,88.11537549999775,88.13166959999944,89.11439629999222,89.11439629999222,v,1,0.7061317000188865,testrun4,001,2022-09-30_10h58.43.546,T4,2022.2.2,60.052774377987404,
50,c,3,2,14,2,,,,,89.84705840001698,90.84596900001634,90.84596900001634,90.84596900001634,90.84596900001634,90.84596900001634,91.84507870001835,91.84507870001835,c,1,0.7255744000140112,testrun4,001,2022-09-30_10h58.43.546,T4,2022.2.2,60.052774377987404,
-150,z,3,3,15,3,,,,,92.59459419999621,93.59366469999077,93.59366469999077,93.59366469999077,93.59366469999077,93.6101142000116,94.59234339999966,94.59234339999966,z,1,0.6111856999923475,testrun4,001,2022-09-30_10h58.43.546,T4,2022.2.2,60.052774377987404,
-50,x,4,0,16,0,,,,,95.22532110000611,96.22436580000794,96.22436580000794,96.22436580000794,96.22436580000794,96.22436580000794,97.22354890001589,97.22354890001589,x,1,0.7203368000045884,testrun4,001,2022-09-30_10h58.43.546,T4,2022.2.2,60.052774377987404,
150,v,4,1,17,1,,,,,97.97295500000473,98.97189230000367,98.97189230000367,98.97189230000367,98.97189230000367,98.97189230000367,99.9710167000012,99.9710167000012,v,1,0.5718696000112686,testrun4,001,2022-09-30_10h58.43.546,T4,2022.2.2,60.052774377987404,
50,c,4,2,18,2,,,,,100.57003090000944,101.56920920000994,101.56920920000994,101.56920920000994,101.56920920000994,101.56920920000994,102.56850490000215,102.56850490000215,c,1,0.6537302999931853,testrun4,001,2022-09-30_10h58.43.546,T4,2022.2.2,60.052774377987404,
-150,z,4,3,19,3,,,,,103.25147670001024,104.25010229999316,104.25010229999316,104.25010229999316,104.25010229999316,104.26695670001209,105.24942920001922,105.24942920001922,z,1,0.5314536000078078,testrun4,001,2022-09-30_10h58.43.546,T4,2022.2.2,60.052774377987404,
-50,x,5,0,20,0,,,,,105.79902810000931,106.79766260000179,106.79766260000179,106.79766260000179,106.79766260000179,106.79766260000179,107.79666069999803,107.79666069999803,x,1,0.5535243000194896,testrun4,001,2022-09-30_10h58.43.546,T4,2022.2.2,60.052774377987404,
150,v,5,1,21,1,,,,,108.38021689999732,109.37914530001581,109.37914530001581,109.37914530001581,109.37914530001581,109.39550539999618,110.37782170000719,110.37782170000719,v,1,0.36344060002011247,testrun4,001,2022-09-30_10h58.43.546,T4,2022.2.2,60.052774377987404,
50,c,5,2,22,2,,,,,110.76113540001097,111.76017190000857,111.76017190000857,111.76017190000857,111.76017190000857,111.7762527000159,112.7589020000014,112.7589020000014,c,1,0.3015780999849085,testrun4,001,2022-09-30_10h58.43.546,T4,2022.2.2,60.052774377987404,
-150,z,5,3,23,3,,,,,113.092154700018,114.09129790001316,114.09129790001316,114.09129790001316,114.09129790001316,114.10778890000074,115.09013670001877,115.09013670001877,z,1,0.30473229999188334,testrun4,001,2022-09-30_10h58.43.546,T4,2022.2.2,60.052774377987404,
-50,x,6,0,24,0,,,,,115.42323350001243,116.42236210001283,116.42236210001283,116.42236210001283,116.42236210001283,116.43871529999888,117.42140870000003,117.42140870000003,x,1,0.26965269999345765,testrun4,001,2022-09-30_10h58.43.546,T4,2022.2.2,60.052774377987404,
150,v,6,1,25,1,,,,,117.72119410001324,118.71985429999768,118.71985429999768,118.71985429999768,118.71985429999768,118.73650260001887,119.7192284000048,119.7192284000048,v,1,0.25496710001607426,testrun4,001,2022-09-30_10h58.43.546,T4,2022.2.2,60.052774377987404,
50,c,6,2,26,2,,,,,120.00203580001835,121.00099970001611,121.00099970001611,121.00099970001611,121.00099970001611,121.00099970001611,122.00052560001495,122.00052560001495,c,1,0.6381797000067309,testrun4,001,2022-09-30_10h58.43.546,T4,2022.2.2,60.052774377987404,
-150,z,6,3,27,3,,,,,122.66640529999859,123.6655437000154,123.6655437000154,123.6655437000154,123.6655437000154,123.6655437000154,124.66428339999402,124.66428339999402,z,1,0.44275579997338355,testrun4,001,2022-09-30_10h58.43.546,T4,2022.2.2,60.052774377987404,
-50,x,7,0,28,0,,,,,125.1311388000031,126.12979390000692,126.12979390000692,126.12979390000692,126.12979390000692,126.14629930001684,127.1291629000043,127.1291629000043,x,1,0.4901495999947656,testrun4,001,2022-09-30_10h58.43.546,T4,2022.2.2,60.052774377987404,
150,v,7,1,29,1,,,,,127.6451778000046,128.6442089000193,128.6442089000193,128.6442089000193,128.6442089000193,128.6442089000193,129.6433181000175,129.6433181000175,v,1,0.3957016999775078,testrun4,001,2022-09-30_10h58.43.546,T4,2022.2.2,60.052774377987404,
50,c,7,2,30,2,,,,,130.0594243000087,131.05897000001278,131.05897000001278,131.05897000001278,131.05897000001278,131.05897000001278,132.0579357999959,132.0579357999959,c,1,0.8376878999988548,testrun4,001,2022-09-30_10h58.43.546,T4,2022.2.2,60.052774377987404,
-150,z,7,3,31,3,,,,,132.92341220000526,133.92253720000735,133.92253720000735,133.92253720000735,133.92253720000735,133.92253720000735,134.92149760000757,134.92149760000757,z,1,0.2636108000006061,testrun4,001,2022-09-30_10h58.43.546,T4,2022.2.2,60.052774377987404,
-50,x,8,0,32,0,,,,,135.2045000999933,136.20369620001293,136.20369620001293,136.20369620001293,136.20369620001293,136.20369620001293,137.20285420000437,137.20285420000437,x,1,0.4814808999944944,testrun4,001,2022-09-30_10h58.43.546,T4,2022.2.2,60.052774377987404,
150,v,8,1,33,1,,,,,137.70272820000537,138.70173970001633,138.70173970001633,138.70173970001633,138.70173970001633,138.70173970001633,139.70043329999316,139.70043329999316,v,1,0.39899859999422915,testrun4,001,2022-09-30_10h58.43.546,T4,2022.2.2,60.052774377987404,
50,c,8,2,34,2,,,,,140.11711819999618,141.1162359000009,141.1162359000009,141.1162359000009,141.1162359000009,141.1162359000009,142.1148824999982,142.1148824999982,c,1,0.7503791999770328,testrun4,001,2022-09-30_10h58.43.546,T4,2022.2.2,60.052774377987404,
-150,z,8,3,35,3,,,,,142.8974608000135,143.89687950001098,143.89687950001098,143.89687950001098,143.89687950001098,143.89687950001098,144.89583260001382,144.89583260001382,z,1,0.5297492999816313,testrun4,001,2022-09-30_10h58.43.546,T4,2022.2.2,60.052774377987404,
-50,x,9,0,36,0,,,,,145.4455569999991,146.4445110000088,146.4445110000088,146.4445110000088,146.4445110000088,146.4445110000088,147.44365210001706,147.44365210001706,x,1,0.4679195999924559,testrun4,001,2022-09-30_10h58.43.546,T4,2022.2.2,60.052774377987404,
150,v,9,1,37,1,,,,,147.9432991000067,148.94229179999093,148.94229179999093,148.94229179999093,148.94229179999093,148.95884680000017,149.94095950000337,149.94095950000337,v,1,0.44947180000599474,testrun4,001,2022-09-30_10h58.43.546,T4,2022.2.2,60.052774377987404,
50,c,9,2,38,2,,,,,150.40774280001642,151.4066970999993,151.4066970999993,151.4066970999993,151.4066970999993,151.42319980001776,152.40560970001388,152.40560970001388,c,1,0.4253086999815423,testrun4,001,2022-09-30_10h58.43.546,T4,2022.2.2,60.052774377987404,
-150,z,9,3,39,3,,,,,152.8552813999995,153.85441279999213,153.85441279999213,153.85441279999213,153.85441279999213,153.85441279999213,154.8531440999941,154.8531440999941,z,1,0.4439859999984037,testrun4,001,2022-09-30_10h58.43.546,T4,2022.2.2,60.052774377987404,
-50,x,10,0,40,0,,,,,155.3195396999945,156.31858340001781,156.31858340001781,156.31858340001781,156.31858340001781,156.33488589999615,157.317715400015,157.317715400015,x,1,0.48952090000966564,testrun4,001,2022-09-30_10h58.43.546,T4,2022.2.2,60.052774377987404,
150,v,10,1,41,1,,,,,157.83316070001456,158.83244060000288,158.83244060000288,158.83244060000288,158.83244060000288,158.83244060000288,159.83216180000454,159.83216180000454,v,1,0.40964090000488795,testrun4,001,2022-09-30_10h58.43.546,T4,2022.2.2,60.052774377987404,
50,c,10,2,42,2,,,,,160.26518899999792,161.26395950000733,161.26395950000733,161.26395950000733,161.26395950000733,161.28062060000957,162.26314359999378,162.26314359999378,c,1,0.4399785999848973,testrun4,001,2022-09-30_10h58.43.546,T4,2022.2.2,60.052774377987404,
-150,z,10,3,43,3,,,,,162.7294586999924,163.72860289999517,163.72860289999517,163.72860289999517,163.72860289999517,163.72860289999517,164.72733330001938,164.72733330001938,z,1,0.31101470001158305,testrun4,001,2022-09-30_10h58.43.546,T4,2022.2.2,60.052774377987404,
-50,x,11,0,44,0,,,,,165.0607755999954,166.05966820000322,166.05966820000322,166.05966820000322,166.05966820000322,166.0762045000156,167.05862820000038,167.05862820000038,x,1,0.5686207999824546,testrun4,001,2022-09-30_10h58.43.546,T4,2022.2.2,60.052774377987404,
150,v,11,1,45,1,,,,,167.65827760001412,168.65727500000503,168.65727500000503,168.65727500000503,168.65727500000503,168.67378949999693,169.65645470001618,169.65645470001618,v,1,0.4159614999953192,testrun4,001,2022-09-30_10h58.43.546,T4,2022.2.2,60.052774377987404,
50,c,11,2,46,2,,,,,170.089332500007,171.08795310001005,171.08795310001005,171.08795310001005,171.08795310001005,171.10458800001652,172.0869498999964,172.0869498999964,c,1,0.27238730000681244,testrun4,001,2022-09-30_10h58.43.546,T4,2022.2.2,60.052774377987404,
-150,z,11,3,47,3,,,,,172.38728399999673,173.3862122000137,173.3862122000137,173.3862122000137,173.3862122000137,173.4026487999945,174.38518290000502,174.38518290000502,z,1,0.40489289999823086,testrun4,001,2022-09-30_10h58.43.546,T4,2022.2.2,60.052774377987404,
-150,z,,,,,0,0,0,3,174.96793330000946,175.81746099999873,175.81746099999873,175.81746099999873,175.81746099999873,175.96711420000065,176.81623850000324,176.81623850000324,z,1,0.6141403999936301,testrun4,001,2022-09-30_10h58.43.546,T4,2022.2.2,60.052774377987404,
-150,z,,,,,0,1,1,3,177.44878609999432,178.44809789999272,178.44809789999272,178.44809789999272,178.44809789999272,178.44809789999272,179.44723839999642,179.44723839999642,z,1,0.38948479999089614,testrun4,001,2022-09-30_10h58.43.546,T4,2022.2.2,60.052774377987404,
50,c,,,,,0,2,2,2,179.8633943000168,180.86260890000267,180.86260890000267,180.86260890000267,180.86260890000267,180.86260890000267,181.8615376999951,181.8615376999951,c,1,0.6081049999920651,testrun4,001,2022-09-30_10h58.43.546,T4,2022.2.2,60.052774377987404,
50,c,,,,,0,3,3,2,182.49439050001092,183.49354900000617,183.49354900000617,183.49354900000617,183.49354900000617,183.49354900000617,184.49252530001104,184.49252530001104,c,1,0.4121877999859862,testrun4,001,2022-09-30_10h58.43.546,T4,2022.2.2,60.052774377987404,
150,v,,,,,1,0,4,1,184.92514690000098,185.92433740000706,185.92433740000706,185.92433740000706,185.92433740000706,185.92433740000706,186.92362069999217,186.92362069999217,v,1,0.504709599976195,testrun4,001,2022-09-30_10h58.43.546,T4,2022.2.2,60.052774377987404,
150,v,,,,,1,1,5,1,187.45599750001566,188.4553673999908,188.4553673999908,188.4553673999908,188.4553673999908,188.4553673999908,189.45420320000267,189.45420320000267,v,1,0.5069550999905914,testrun4,001,2022-09-30_10h58.43.546,T4,2022.2.2,60.052774377987404,
150,v,,,,,1,2,6,1,189.9876337000169,190.98637540001073,190.98637540001073,190.98637540001073,190.98637540001073,191.00301020001643,191.98539040001924,191.98539040001924,v,1,0.5199332000047434,testrun4,001,2022-09-30_10h58.43.546,T4,2022.2.2,60.052774377987404,
50,c,,,,,1,3,7,2,192.5350225000002,193.5340261000092,193.5340261000092,193.5340261000092,193.5340261000092,193.5506868000084,194.5323076999921,194.5323076999921,c,1,0.6678100000135601,testrun4,001,2022-09-30_10h58.43.546,T4,2022.2.2,60.052774377987404,
50,c,,,,,2,0,8,2,195.23221790001844,196.23137940000743,196.23137940000743,196.23137940000743,196.23137940000743,196.23137940000743,197.2305572000041,197.2305572000041,c,1,0.9971906999999192,testrun4,001,2022-09-30_10h58.43.546,T4,2022.2.2,60.052774377987404,
-150,z,,,,,2,1,9,3,198.24650120001752,199.245665800001,199.245665800001,199.245665800001,199.245665800001,199.26160630001687,200.24459560000105,200.24459560000105,z,1,0.6478274999826681,testrun4,001,2022-09-30_10h58.43.546,T4,2022.2.2,60.052774377987404,
-50,x,,,,,2,2,10,0,200.91051980000339,201.9095648000075,201.9095648000075,201.9095648000075,201.9095648000075,201.9095648000075,202.9086227999942,202.9086227999942,x,1,0.7704182000015862,testrun4,001,2022-09-30_10h58.43.546,T4,2022.2.2,60.052774377987404,
150,v,,,,,2,3,11,1,203.70795340000768,204.7069055000029,204.7069055000029,204.7069055000029,204.7069055000029,204.7069055000029,205.70581509999465,205.70581509999465,v,1,0.5726778999960516,testrun4,001,2022-09-30_10h58.43.546,T4,2022.2.2,60.052774377987404,
-50,x,,,,,3,0,12,0,206.30543840001337,207.3045219000196,207.3045219000196,207.3045219000196,207.3045219000196,207.3045219000196,208.30379820000962,208.30379820000962,x,1,0.4609492000017781,testrun4,001,2022-09-30_10h58.43.546,T4,2022.2.2,60.052774377987404,
50,c,,,,,3,1,13,2,208.78643830001238,209.78557840001304,209.78557840001304,209.78557840001304,209.78557840001304,209.78557840001304,210.7848453000188,210.7848453000188,c,1,1.3863389000180177,testrun4,001,2022-09-30_10h58.43.546,T4,2022.2.2,60.052774377987404,
50,c,,,,,3,2,14,2,212.2001750000054,213.19915990001755,213.19915990001755,213.19915990001755,213.19915990001755,213.19915990001755,214.19827920000535,214.19827920000535,c,1,1.2563102999993134,testrun4,001,2022-09-30_10h58.43.546,T4,2022.2.2,60.052774377987404,
-150,z,,,,,3,3,15,3,215.48016790000838,216.4794142000028,216.4794142000028,216.4794142000028,216.4794142000028,216.4794142000028,217.47847440000623,217.47847440000623,z,1,0.7390267000009771,testrun4,001,2022-09-30_10h58.43.546,T4,2022.2.2,60.052774377987404,
150,v,,,,,4,0,16,1,218.24460209999233,219.24346490000607,219.24346490000607,219.24346490000607,219.24346490000607,219.24346490000607,220.24250399999437,220.24250399999437,v,1,0.4698545999999624,testrun4,001,2022-09-30_10h58.43.546,T4,2022.2.2,60.052774377987404,
-50,x,,,,,4,1,17,0,220.74235469999257,221.74087720000534,221.74087720000534,221.74087720000534,221.74087720000534,221.74087720000534,222.74018379999325,222.74018379999325,x,1,0.5175776999967638,testrun4,001,2022-09-30_10h58.43.546,T4,2022.2.2,60.052774377987404,
-50,x,,,,,4,2,18,0,223.28981499999645,224.28875070001232,224.28875070001232,224.28875070001232,224.28875070001232,224.28875070001232,225.28782180001144,225.28782180001144,x,1,0.5449443999968935,testrun4,001,2022-09-30_10h58.43.546,T4,2022.2.2,60.052774377987404,
150,v,,,,,4,3,19,1,225.85413419999531,226.85299889999442,226.85299889999442,226.85299889999442,226.85299889999442,226.85299889999442,227.8522414000181,227.8522414000181,v,1,0.45097570001962595,testrun4,001,2022-09-30_10h58.43.546,T4,2022.2.2,60.052774377987404,
150,v,,,,,5,0,20,1,228.3351468000037,229.3340167000133,229.3340167000133,229.3340167000133,229.3340167000133,229.35067010001512,230.33310069999425,230.33310069999425,v,1,0.4533804999955464,testrun4,001,2022-09-30_10h58.43.546,T4,2022.2.2,60.052774377987404,
-50,x,,,,,5,1,21,0,230.81622219999554,231.81510000000708,231.81510000000708,231.81510000000708,231.81510000000708,231.81510000000708,232.81399960001,232.81399960001,x,1,0.4204075000016019,testrun4,001,2022-09-30_10h58.43.546,T4,2022.2.2,60.052774377987404,
150,v,,,,,5,2,22,1,233.26392679999117,234.26286730001448,234.26286730001448,234.26286730001448,234.26286730001448,234.26286730001448,235.26189480000176,235.26189480000176,v,1,0.4124322999850847,testrun4,001,2022-09-30_10h58.43.546,T4,2022.2.2,60.052774377987404,
-50,x,,,,,5,3,23,0,235.69491970000672,236.6939948000072,236.6939948000072,236.6939948000072,236.6939948000072,236.6939948000072,237.69290359999286,237.69290359999286,x,1,0.3885219000221696,testrun4,001,2022-09-30_10h58.43.546,T4,2022.2.2,60.052774377987404,
-150,z,,,,,6,0,24,3,238.10905450000428,239.10822399999597,239.10822399999597,239.10822399999597,239.10822399999597,239.10822399999597,240.10728070000187,240.10728070000187,z,1,0.4506526000041049,testrun4,001,2022-09-30_10h58.43.546,T4,2022.2.2,60.052774377987404,
-150,z,,,,,6,1,25,3,240.59047719999216,241.58927670001867,241.58927670001867,241.58927670001867,241.58927670001867,241.60604380001314,242.58837020001374,242.58837020001374,x,0,0.33985170000232756,testrun4,001,2022-09-30_10h58.43.546,T4,2022.2.2,60.052774377987404,
-50,x,,,,,6,2,26,0,242.95499260001816,243.95391330000712,243.95391330000712,243.95391330000712,243.95391330000712,243.95391330000712,244.95309429999907,244.95309429999907,x,1,0.5181942000053823,testrun4,001,2022-09-30_10h58.43.546,T4,2022.2.2,60.052774377987404,
50,c,,,,,6,3,27,2,245.50259990000632,246.50168960000155,246.50168960000155,246.50168960000155,246.50168960000155,246.51837030000752,247.50069929999881,247.50069929999881,c,1,0.4175463999854401,testrun4,001,2022-09-30_10h58.43.546,T4,2022.2.2,60.052774377987404,
50,c,,,,,7,0,28,2,247.95028849999653,248.94938569999067,248.94938569999067,248.94938569999067,248.94938569999067,248.9660656999913,249.94810239999788,249.94810239999788,c,1,0.5383163000224158,testrun4,001,2022-09-30_10h58.43.546,T4,2022.2.2,60.052774377987404,
150,v,,,,,7,1,29,1,250.5147236000048,251.5136438999907,251.5136438999907,251.5136438999907,251.5136438999907,251.5303300000087,252.5126542999933,252.5126542999933,v,1,0.48178900001221336,testrun4,001,2022-09-30_10h58.43.546,T4,2022.2.2,60.052774377987404,
-150,z,,,,,7,2,30,3,253.01212120000855,254.011118800001,254.011118800001,254.011118800001,254.011118800001,254.011118800001,255.01044080001884,255.01044080001884,z,1,0.4362093000090681,testrun4,001,2022-09-30_10h58.43.546,T4,2022.2.2,60.052774377987404,
150,v,,,,,7,3,31,1,255.4765718000126,256.4755584000086,256.4755584000086,256.4755584000086,256.4755584000086,256.4755584000086,257.4747849999985,257.4747849999985,v,1,0.43604560001404025,testrun4,001,2022-09-30_10h58.43.546,T4,2022.2.2,60.052774377987404,
-50,x,,,,,8,0,32,0,257.9410312999971,258.93997460001265,258.93997460001265,258.93997460001265,258.93997460001265,258.93997460001265,259.938996700017,259.938996700017,x,1,0.8881692000140902,testrun4,001,2022-09-30_10h58.43.546,T4,2022.2.2,60.052774377987404,
150,v,,,,,8,1,33,1,260.8551371000067,261.8540564000141,261.8540564000141,261.8540564000141,261.8540564000141,261.87071920000017,262.85295540001243,262.85295540001243,v,1,0.4259036000003107,testrun4,001,2022-09-30_10h58.43.546,T4,2022.2.2,60.052774377987404,
-50,x,,,,,8,2,34,0,263.3026009000023,264.3018630000006,264.3018630000006,264.3018630000006,264.3018630000006,264.3018630000006,265.3006116000179,265.3006116000179,x,1,0.6417757000017446,testrun4,001,2022-09-30_10h58.43.546,T4,2022.2.2,60.052774377987404,
-150,z,,,,,8,3,35,3,265.966791999992,266.9661205000011,266.9661205000011,266.9661205000011,266.9661205000011,266.9661205000011,267.9648026000068,267.9648026000068,z,1,0.6438174000068102,testrun4,001,2022-09-30_10h58.43.546,T4,2022.2.2,60.052774377987404,
50,c,,,,,9,0,36,2,268.6310397000052,269.63029940001434,269.63029940001434,269.63029940001434,269.63029940001434,269.63029940001434,270.62908519999473,270.62908519999473,c,1,0.44105550000676885,testrun4,001,2022-09-30_10h58.43.546,T4,2022.2.2,60.052774377987404,
-150,z,,,,,9,1,37,3,271.0950824000174,272.0940864000004,272.0940864000004,272.0940864000004,272.0940864000004,272.0940864000004,273.09357960001216,273.09357960001216,z,1,0.5816662000142969,testrun4,001,2022-09-30_10h58.43.546,T4,2022.2.2,60.052774377987404,
50,c,,,,,9,2,38,2,273.6929269999964,274.69243170000846,274.69243170000846,274.69243170000846,274.69243170000846,274.69243170000846,275.6912541000056,275.6912541000056,c,1,1.0428667000087444,testrun4,001,2022-09-30_10h58.43.546,T4,2022.2.2,60.052774377987404,
-50,x,,,,,9,3,39,0,276.75679330001003,277.75591100001475,277.75591100001475,277.75591100001475,277.75591100001475,277.75591100001475,278.75501870000153,278.75501870000153,x,1,0.5158537999959663,testrun4,001,2022-09-30_10h58.43.546,T4,2022.2.2,60.052774377987404,
-50,x,,,,,10,0,40,0,279.2874840000004,280.26986669999314,280.26986669999314,280.26986669999314,280.26986669999314,280.2863958000089,281.28552140001557,281.28552140001557,x,1,0.49387440001009963,testrun4,001,2022-09-30_10h58.43.546,T4,2022.2.2,60.052774377987404,
150,v,,,,,10,1,41,1,281.8020364000113,282.80120960000204,282.80120960000204,282.80120960000204,282.80120960000204,282.80120960000204,283.80011260000174,283.80011260000174,v,1,0.4708649000094738,testrun4,001,2022-09-30_10h58.43.546,T4,2022.2.2,60.052774377987404,
-150,z,,,,,10,2,42,3,284.30028049999964,285.2990034999966,285.2990034999966,285.2990034999966,285.2990034999966,285.31553580000764,286.29811619999236,286.29811619999236,z,1,0.5263494000246283,testrun4,001,2022-09-30_10h58.43.546,T4,2022.2.2,60.052774377987404,
50,c,,,,,10,3,43,2,286.8473843999964,287.8465347000165,287.8465347000165,287.8465347000165,287.8465347000165,287.8465347000165,288.8453446000058,288.8453446000058,c,1,1.083926799998153,testrun4,001,2022-09-30_10h58.43.546,T4,2022.2.2,60.052774377987404,
50,c,,,,,11,0,44,2,289.96130500000436,290.9602628000139,290.9602628000139,290.9602628000139,290.9602628000139,290.9767758999951,291.9595137000142,291.9595137000142,c,1,0.34710139999515377,testrun4,001,2022-09-30_10h58.43.546,T4,2022.2.2,60.052774377987404,
-150,z,,,,,11,1,45,3,292.32577749999473,293.3247789000161,293.3247789000161,293.3247789000161,293.3247789000161,293.3247789000161,294.3238535000128,294.3238535000128,z,1,0.7191403999750037,testrun4,001,2022-09-30_10h58.43.546,T4,2022.2.2,60.052774377987404,
-150,z,,,,,11,2,46,3,295.0730045000091,296.072116299998,296.072116299998,296.072116299998,296.072116299998,296.072116299998,297.0710457999958,297.0710457999958,z,1,0.5581837999925483,testrun4,001,2022-09-30_10h58.43.546,T4,2022.2.2,60.052774377987404,
-50,x,,,,,11,3,47,0,297.65397620000294,298.6531382999965,298.6531382999965,298.6531382999965,298.6531382999965,298.6531382999965,299.65217519999715,299.65217519999715,x,1,0.573316199996043,testrun4,001,2022-09-30_10h58.43.546,T4,2022.2.2,60.052774377987404,
