delay,freq,condition,trials.thisRepN,trials.thisTrialN,trials.thisN,trials.thisIndex,fixation.started,polygon.started,key_resp.started,fixation.stopped,key_resp.keys,key_resp.rt,sound_1.started,sound_1.stopped,text.started,textbox.started,button.started,textbox.text,button.numClicks,button.timesOn,button.timesOff,participant,session,date,expName,psychopyVersion,frameRate
0.4,1000,exp,0,0,0,10,251.3867172,252.2418654,252.2418654,252.3917889,space,1.8526769,254.5725664,254.8797498,254.8797498,254.8797498,254.8797498,350,1,[5.341000700020231],[5.341013199998997],1,1,2022-11-04_11h59.36.200,T7,2022.2.2,60.02458608
0.1,1000,exp,0,1,1,9,260.2080965,261.2165991,261.2165991,261.2165991,space,1.7448324,263.0814482,,263.3826106,263.3826106,263.3826106,350,2,"[5.341000700020231, 4.428008000017144]","[5.341013199998997, 4.428014400007669]",1,1,2022-11-04_11h59.36.200,T7,2022.2.2,60.02458608
0.4,400,unexp,0,2,2,1,267.8105982,268.8093919,268.8093919,268.8260695,space,2.152677,271.3904927,271.6965881,271.6965881,271.6965881,271.6965881,300,3,"[5.341000700020231, 4.428008000017144, 11.87045049999142]","[5.341013199998997, 4.428014400007669, 11.870459099998698]",1,1,2022-11-04_11h59.36.200,T7,2022.2.2,60.02458608
0.4,1000,exp,0,3,3,7,283.5623749,284.5616868,284.5616868,284.5616868,space,1.2396392,286.226704,,286.528774,286.528774,286.528774,200,4,"[5.341000700020231, 4.428008000017144, 11.87045049999142, 4.660540500015486]","[5.341013199998997, 4.428014400007669, 11.870459099998698, 4.66054750001058]",1,1,2022-11-04_11h59.36.200,T7,2022.2.2,60.02458608
0.1,400,unexp,0,4,4,0,291.1886401,292.1879487,292.1879487,292.1879487,space,0.8960837,293.2033674,,293.5034239,293.5034239,293.5034239,400,5,"[5.341000700020231, 4.428008000017144, 11.87045049999142, 4.660540500015486, 5.277511599997524]","[5.341013199998997, 4.428014400007669, 11.870459099998698, 4.66054750001058, 5.277519499999471]",1,1,2022-11-04_11h59.36.200,T7,2022.2.2,60.02458608
0.7,1000,exp,0,5,5,5,298.7817066,299.7808747,299.7808747,299.7808747,space,1.1556258,301.6624519,,301.9625917,301.9625917,301.9625917,350,6,"[5.341000700020231, 4.428008000017144, 11.87045049999142, 4.660540500015486, 5.277511599997524, 3.3787785000167787]","[5.341013199998997, 4.428014400007669, 11.870459099998698, 4.66054750001058, 5.277519499999471, 3.3787836999981664]",1,1,2022-11-04_11h59.36.200,T7,2022.2.2,60.02458608
0.7,1000,exp,0,6,6,8,305.3423235,306.3414708,306.3414708,306.3414708,space,2.5743576,309.638048,,309.9408115,309.9408115,309.9408115,300,7,"[5.341000700020231, 4.428008000017144, 11.87045049999142, 4.660540500015486, 5.277511599997524, 3.3787785000167787, 3.1774649000144564]","[5.341013199998997, 4.428014400007669, 11.870459099998698, 4.66054750001058, 5.277519499999471, 3.3787836999981664, 3.1774701999966055]",1,1,2022-11-04_11h59.36.200,T7,2022.2.2,60.02458608
0.7,400,unexp,0,7,7,2,313.1183419,314.1176194,314.1176194,314.1176194,space,0.524999,315.3662971,,315.6683778,315.6683778,315.6683778,500,8,"[5.341000700020231, 4.428008000017144, 11.87045049999142, 4.660540500015486, 5.277511599997524, 3.3787785000167787, 3.1774649000144564, 2.6615122000221163]","[5.341013199998997, 4.428014400007669, 11.870459099998698, 4.66054750001058, 5.277519499999471, 3.3787836999981664, 3.1774701999966055, 2.6615179000073113]",1,1,2022-11-04_11h59.36.200,T7,2022.2.2,60.02458608
0.1,1000,exp,0,8,8,3,318.3302712,319.3295672,319.3295672,319.3295672,space,1.2240396,320.678195,320.9790438,320.9790438,320.9790438,320.9790438,200,9,"[5.341000700020231, 4.428008000017144, 11.87045049999142, 4.660540500015486, 5.277511599997524, 3.3787785000167787, 3.1774649000144564, 2.6615122000221163, 3.4789932999992743]","[5.341013199998997, 4.428014400007669, 11.870459099998698, 4.66054750001058, 5.277519499999471, 3.3787836999981664, 3.1774701999966055, 2.6615179000073113, 3.4790009999996983]",1,1,2022-11-04_11h59.36.200,T7,2022.2.2,60.02458608
0.1,1000,exp,0,9,9,6,324.4579255,325.457328,325.457328,325.4737213,space,1.5189478,327.1053913,,327.4089999,327.4089999,327.4089999,200,10,"[5.341000700020231, 4.428008000017144, 11.87045049999142, 4.660540500015486, 5.277511599997524, 3.3787785000167787, 3.1774649000144564, 2.6615122000221163, 3.4789932999992743, 3.128056599991396]","[5.341013199998997, 4.428014400007669, 11.870459099998698, 4.66054750001058, 5.277519499999471, 3.3787836999981664, 3.1774701999966055, 2.6615179000073113, 3.4790009999996983, 3.128063199983444]",1,1,2022-11-04_11h59.36.200,T7,2022.2.2,60.02458608
0.7,1000,exp,0,10,10,11,330.5357175,331.5350986,331.5350986,331.5350986,space,0.8356532,333.0999271,333.4020086,333.4020086,333.4020086,333.4020086,200,11,"[5.341000700020231, 4.428008000017144, 11.87045049999142, 4.660540500015486, 5.277511599997524, 3.3787785000167787, 3.1774649000144564, 2.6615122000221163, 3.4789932999992743, 3.128056599991396, 7.059315100021195]","[5.341013199998997, 4.428014400007669, 11.870459099998698, 4.66054750001058, 5.277519499999471, 3.3787836999981664, 3.1774701999966055, 2.6615179000073113, 3.4790009999996983, 3.128063199983444, 7.059321700013243]",1,1,2022-11-04_11h59.36.200,T7,2022.2.2,60.02458608
0.4,1000,exp,0,11,11,4,340.4598872,341.4587446,341.4587446,341.4587446,space,1.5568918,343.4401044,,343.7399294,343.7399294,343.7399294,200,12,"[5.341000700020231, 4.428008000017144, 11.87045049999142, 4.660540500015486, 5.277511599997524, 3.3787785000167787, 3.1774649000144564, 2.6615122000221163, 3.4789932999992743, 3.128056599991396, 7.059315100021195, 2.129718700016383]","[5.341013199998997, 4.428014400007669, 11.870459099998698, 4.66054750001058, 5.277519499999471, 3.3787836999981664, 3.1774701999966055, 2.6615179000073113, 3.4790009999996983, 3.128063199983444, 7.059321700013243, 2.129738899995573]",1,1,2022-11-04_11h59.36.200,T7,2022.2.2,60.02458608
0.4,400,unexp,1,0,12,1,345.8713515,346.8704445,346.8704445,346.8704445,space,2.2811528,349.5677615,349.8678415,349.8678415,349.8678415,349.8678415,500,13,"[5.341000700020231, 4.428008000017144, 11.87045049999142, 4.660540500015486, 5.277511599997524, 3.3787785000167787, 3.1774649000144564, 2.6615122000221163, 3.4789932999992743, 3.128056599991396, 7.059315100021195, 2.129718700016383, 11.10481129999971]","[5.341013199998997, 4.428014400007669, 11.870459099998698, 4.66054750001058, 5.277519499999471, 3.3787836999981664, 3.1774701999966055, 2.6615179000073113, 3.4790009999996983, 3.128063199983444, 7.059321700013243, 2.129738899995573, 11.104817699990235]",1,1,2022-11-04_11h59.36.200,T7,2022.2.2,60.02458608
0.4,1000,exp,1,1,13,10,360.9738596,361.9729782,361.9729782,361.9729782,space,3.2893052,365.6861779,365.9862949,365.9862949,365.9862949,365.9862949,400,14,"[5.341000700020231, 4.428008000017144, 11.87045049999142, 4.660540500015486, 5.277511599997524, 3.3787785000167787, 3.1774649000144564, 2.6615122000221163, 3.4789932999992743, 3.128056599991396, 7.059315100021195, 2.129718700016383, 11.10481129999971, 3.379162700031884]","[5.341013199998997, 4.428014400007669, 11.870459099998698, 4.66054750001058, 5.277519499999471, 3.3787836999981664, 3.1774701999966055, 2.6615179000073113, 3.4790009999996983, 3.128063199983444, 7.059321700013243, 2.129738899995573, 11.104817699990235, 3.3791692000231706]",1,1,2022-11-04_11h59.36.200,T7,2022.2.2,60.02458608
0.7,400,unexp,1,2,14,2,369.3664089,370.365265,370.365265,370.3816831,space,2.8581561,373.9452269,374.2462016,374.2462016,374.2462016,374.2462016,500,15,"[5.341000700020231, 4.428008000017144, 11.87045049999142, 4.660540500015486, 5.277511599997524, 3.3787785000167787, 3.1774649000144564, 2.6615122000221163, 3.4789932999992743, 3.128056599991396, 7.059315100021195, 2.129718700016383, 11.10481129999971, 3.379162700031884, 3.5444295999477617]","[5.341013199998997, 4.428014400007669, 11.870459099998698, 4.66054750001058, 5.277519499999471, 3.3787836999981664, 3.1774701999966055, 2.6615179000073113, 3.4790009999996983, 3.128063199983444, 7.059321700013243, 2.129738899995573, 11.104817699990235, 3.3791692000231706, 3.5444344999850728]",1,1,2022-11-04_11h59.36.200,T7,2022.2.2,60.02458608
0.1,1000,exp,1,3,15,6,377.791675,378.7906004,378.7906004,378.8074144,space,2.5179132,381.438334,381.7378895,381.7378895,381.7378895,381.7378895,200,16,"[5.341000700020231, 4.428008000017144, 11.87045049999142, 4.660540500015486, 5.277511599997524, 3.3787785000167787, 3.1774649000144564, 2.6615122000221163, 3.4789932999992743, 3.128056599991396, 7.059315100021195, 2.129718700016383, 11.10481129999971, 3.379162700031884, 3.5444295999477617, 2.746562400017865]","[5.341013199998997, 4.428014400007669, 11.870459099998698, 4.66054750001058, 5.277519499999471, 3.3787836999981664, 3.1774701999966055, 2.6615179000073113, 3.4790009999996983, 3.128063199983444, 7.059321700013243, 2.129738899995573, 11.104817699990235, 3.3791692000231706, 3.5444344999850728, 2.7465707000228576]",1,1,2022-11-04_11h59.36.200,T7,2022.2.2,60.02458608
0.7,1000,exp,1,4,16,11,384.4854077,385.4846044,385.4846044,385.4846044,space,2.5987184,388.8144662,,389.116079,389.116079,389.116079,400,17,"[5.341000700020231, 4.428008000017144, 11.87045049999142, 4.660540500015486, 5.277511599997524, 3.3787785000167787, 3.1774649000144564, 2.6615122000221163, 3.4789932999992743, 3.128056599991396, 7.059315100021195, 2.129718700016383, 11.10481129999971, 3.379162700031884, 3.5444295999477617, 2.746562400017865, 4.062598999997135]","[5.341013199998997, 4.428014400007669, 11.870459099998698, 4.66054750001058, 5.277519499999471, 3.3787836999981664, 3.1774701999966055, 2.6615179000073113, 3.4790009999996983, 3.128063199983444, 7.059321700013243, 2.129738899995573, 11.104817699990235, 3.3791692000231706, 3.5444344999850728, 2.7465707000228576, 4.062605100043584]",1,1,2022-11-04_11h59.36.200,T7,2022.2.2,60.02458608
0.7,1000,exp,1,5,17,8,393.177452,394.1765829,394.1765829,394.1765829,space,2.6358049,397.5399137,,397.8398128,397.8398128,397.8398128,350,18,"[5.341000700020231, 4.428008000017144, 11.87045049999142, 4.660540500015486, 5.277511599997524, 3.3787785000167787, 3.1774649000144564, 2.6615122000221163, 3.4789932999992743, 3.128056599991396, 7.059315100021195, 2.129718700016383, 11.10481129999971, 3.379162700031884, 3.5444295999477617, 2.746562400017865, 4.062598999997135, 4.1607945000287145]","[5.341013199998997, 4.428014400007669, 11.870459099998698, 4.66054750001058, 5.277519499999471, 3.3787836999981664, 3.1774701999966055, 2.6615179000073113, 3.4790009999996983, 3.128063199983444, 7.059321700013243, 2.129738899995573, 11.104817699990235, 3.3791692000231706, 3.5444344999850728, 2.7465707000228576, 4.062605100043584, 4.160800400015432]",1,1,2022-11-04_11h59.36.200,T7,2022.2.2,60.02458608
0.7,1000,exp,1,6,18,5,402.0027122,403.0023932,403.0023932,403.0023932,space,3.9093318,407.6306435,,407.9333822,407.9333822,407.9333822,400,19,"[5.341000700020231, 4.428008000017144, 11.87045049999142, 4.660540500015486, 5.277511599997524, 3.3787785000167787, 3.1774649000144564, 2.6615122000221163, 3.4789932999992743, 3.128056599991396, 7.059315100021195, 2.129718700016383, 11.10481129999971, 3.379162700031884, 3.5444295999477617, 2.746562400017865, 4.062598999997135, 4.1607945000287145, 6.142480999988038]","[5.341013199998997, 4.428014400007669, 11.870459099998698, 4.66054750001058, 5.277519499999471, 3.3787836999981664, 3.1774701999966055, 2.6615179000073113, 3.4790009999996983, 3.128063199983444, 7.059321700013243, 2.129738899995573, 11.104817699990235, 3.3791692000231706, 3.5444344999850728, 2.7465707000228576, 4.062605100043584, 4.160800400015432, 6.142485299962573]",1,1,2022-11-04_11h59.36.200,T7,2022.2.2,60.02458608
0.1,1000,exp,1,7,19,3,414.0743713,415.0736934,415.0736934,415.0736934,space,4.0704294,419.2698998,,419.5731789,419.5731789,419.5731789,300,20,"[5.341000700020231, 4.428008000017144, 11.87045049999142, 4.660540500015486, 5.277511599997524, 3.3787785000167787, 3.1774649000144564, 2.6615122000221163, 3.4789932999992743, 3.128056599991396, 7.059315100021195, 2.129718700016383, 11.10481129999971, 3.379162700031884, 3.5444295999477617, 2.746562400017865, 4.062598999997135, 4.1607945000287145, 6.142480999988038, 5.4759165000286885]","[5.341013199998997, 4.428014400007669, 11.870459099998698, 4.66054750001058, 5.277519499999471, 3.3787836999981664, 3.1774701999966055, 2.6615179000073113, 3.4790009999996983, 3.128063199983444, 7.059321700013243, 2.129738899995573, 11.104817699990235, 3.3791692000231706, 3.5444344999850728, 2.7465707000228576, 4.062605100043584, 4.160800400015432, 6.142485299962573, 5.475923500023782]",1,1,2022-11-04_11h59.36.200,T7,2022.2.2,60.02458608
0.1,400,unexp,1,8,20,0,425.0476775,426.0469997,426.0469997,426.0469997,space,3.8988111,430.0765817,430.3774388,430.3774388,430.3774388,430.3774388,450,21,"[5.341000700020231, 4.428008000017144, 11.87045049999142, 4.660540500015486, 5.277511599997524, 3.3787785000167787, 3.1774649000144564, 2.6615122000221163, 3.4789932999992743, 3.128056599991396, 7.059315100021195, 2.129718700016383, 11.10481129999971, 3.379162700031884, 3.5444295999477617, 2.746562400017865, 4.062598999997135, 4.1607945000287145, 6.142480999988038, 5.4759165000286885, 3.0955945000168867]","[5.341013199998997, 4.428014400007669, 11.870459099998698, 4.66054750001058, 5.277519499999471, 3.3787836999981664, 3.1774701999966055, 2.6615179000073113, 3.4790009999996983, 3.128063199983444, 7.059321700013243, 2.129738899995573, 11.104817699990235, 3.3791692000231706, 3.5444344999850728, 2.7465707000228576, 4.062605100043584, 4.160800400015432, 6.142485299962573, 5.475923500023782, 3.095600900007412]",1,1,2022-11-04_11h59.36.200,T7,2022.2.2,60.02458608
0.1,1000,exp,1,9,21,9,433.4735814,434.4722905,434.4722905,434.4888404,space,4.1122214,438.7022024,,439.0020126,439.0020126,439.0020126,200,22,"[5.341000700020231, 4.428008000017144, 11.87045049999142, 4.660540500015486, 5.277511599997524, 3.3787785000167787, 3.1774649000144564, 2.6615122000221163, 3.4789932999992743, 3.128056599991396, 7.059315100021195, 2.129718700016383, 11.10481129999971, 3.379162700031884, 3.5444295999477617, 2.746562400017865, 4.062598999997135, 4.1607945000287145, 6.142480999988038, 5.4759165000286885, 3.0955945000168867, 2.4813149999827147]","[5.341013199998997, 4.428014400007669, 11.870459099998698, 4.66054750001058, 5.277519499999471, 3.3787836999981664, 3.1774701999966055, 2.6615179000073113, 3.4790009999996983, 3.128063199983444, 7.059321700013243, 2.129738899995573, 11.104817699990235, 3.3791692000231706, 3.5444344999850728, 2.7465707000228576, 4.062605100043584, 4.160800400015432, 6.142485299962573, 5.475923500023782, 3.095600900007412, 2.4813241999945603]",1,1,2022-11-04_11h59.36.200,T7,2022.2.2,60.02458608
0.4,1000,exp,1,10,22,4,441.4825065,442.481857,442.481857,442.481857,space,3.2563222,446.1619918,,446.4630719,446.4630719,446.4630719,400,23,"[5.341000700020231, 4.428008000017144, 11.87045049999142, 4.660540500015486, 5.277511599997524, 3.3787785000167787, 3.1774649000144564, 2.6615122000221163, 3.4789932999992743, 3.128056599991396, 7.059315100021195, 2.129718700016383, 11.10481129999971, 3.379162700031884, 3.5444295999477617, 2.746562400017865, 4.062598999997135, 4.1607945000287145, 6.142480999988038, 5.4759165000286885, 3.0955945000168867, 2.4813149999827147, 4.294847099983599]","[5.341013199998997, 4.428014400007669, 11.870459099998698, 4.66054750001058, 5.277519499999471, 3.3787836999981664, 3.1774701999966055, 2.6615179000073113, 3.4790009999996983, 3.128063199983444, 7.059321700013243, 2.129738899995573, 11.104817699990235, 3.3791692000231706, 3.5444344999850728, 2.7465707000228576, 4.062605100043584, 4.160800400015432, 6.142485299962573, 5.475923500023782, 3.095600900007412, 2.4813241999945603, 4.294853399973363]",1,1,2022-11-04_11h59.36.200,T7,2022.2.2,60.02458608
0.4,1000,exp,1,11,23,7,450.7572041,451.7561508,451.7561508,451.7561508,space,3.3737881,455.5526763,,455.8527721,455.8527721,455.8527721,350,24,"[5.341000700020231, 4.428008000017144, 11.87045049999142, 4.660540500015486, 5.277511599997524, 3.3787785000167787, 3.1774649000144564, 2.6615122000221163, 3.4789932999992743, 3.128056599991396, 7.059315100021195, 2.129718700016383, 11.10481129999971, 3.379162700031884, 3.5444295999477617, 2.746562400017865, 4.062598999997135, 4.1607945000287145, 6.142480999988038, 5.4759165000286885, 3.0955945000168867, 2.4813149999827147, 4.294847099983599, 5.460425500001293]","[5.341013199998997, 4.428014400007669, 11.870459099998698, 4.66054750001058, 5.277519499999471, 3.3787836999981664, 3.1774701999966055, 2.6615179000073113, 3.4790009999996983, 3.128063199983444, 7.059321700013243, 2.129738899995573, 11.104817699990235, 3.3791692000231706, 3.5444344999850728, 2.7465707000228576, 4.062605100043584, 4.160800400015432, 6.142485299962573, 5.475923500023782, 3.095600900007412, 2.4813241999945603, 4.294853399973363, 5.460431299987249]",1,1,2022-11-04_11h59.36.200,T7,2022.2.2,60.02458608
0.7,1000,exp,2,0,24,5,461.3143642,462.3133447,462.3133447,462.3133447,space,3.2499663,466.2930221,,466.5944912,466.5944912,466.5944912,400,25,"[5.341000700020231, 4.428008000017144, 11.87045049999142, 4.660540500015486, 5.277511599997524, 3.3787785000167787, 3.1774649000144564, 2.6615122000221163, 3.4789932999992743, 3.128056599991396, 7.059315100021195, 2.129718700016383, 11.10481129999971, 3.379162700031884, 3.5444295999477617, 2.746562400017865, 4.062598999997135, 4.1607945000287145, 6.142480999988038, 5.4759165000286885, 3.0955945000168867, 2.4813149999827147, 4.294847099983599, 5.460425500001293, 6.541998300002888]","[5.341013199998997, 4.428014400007669, 11.870459099998698, 4.66054750001058, 5.277519499999471, 3.3787836999981664, 3.1774701999966055, 2.6615179000073113, 3.4790009999996983, 3.128063199983444, 7.059321700013243, 2.129738899995573, 11.104817699990235, 3.3791692000231706, 3.5444344999850728, 2.7465707000228576, 4.062605100043584, 4.160800400015432, 6.142485299962573, 5.475923500023782, 3.095600900007412, 2.4813241999945603, 4.294853399973363, 5.460431299987249, 6.542006100004073]",1,1,2022-11-04_11h59.36.200,T7,2022.2.2,60.02458608
0.1,400,unexp,2,1,25,0,473.1369142,474.1357137,474.1357137,474.1357137,space,2.7986533,477.0662756,,477.3684664,477.3684664,477.3684664,600,26,"[5.341000700020231, 4.428008000017144, 11.87045049999142, 4.660540500015486, 5.277511599997524, 3.3787785000167787, 3.1774649000144564, 2.6615122000221163, 3.4789932999992743, 3.128056599991396, 7.059315100021195, 2.129718700016383, 11.10481129999971, 3.379162700031884, 3.5444295999477617, 2.746562400017865, 4.062598999997135, 4.1607945000287145, 6.142480999988038, 5.4759165000286885, 3.0955945000168867, 2.4813149999827147, 4.294847099983599, 5.460425500001293, 6.541998300002888, 5.677164599997923]","[5.341013199998997, 4.428014400007669, 11.870459099998698, 4.66054750001058, 5.277519499999471, 3.3787836999981664, 3.1774701999966055, 2.6615179000073113, 3.4790009999996983, 3.128063199983444, 7.059321700013243, 2.129738899995573, 11.104817699990235, 3.3791692000231706, 3.5444344999850728, 2.7465707000228576, 4.062605100043584, 4.160800400015432, 6.142485299962573, 5.475923500023782, 3.095600900007412, 2.4813241999945603, 4.294853399973363, 5.460431299987249, 6.542006100004073, 5.677170899987686]",1,1,2022-11-04_11h59.36.200,T7,2022.2.2,60.02458608
0.4,400,unexp,2,2,26,1,483.0441424,484.0433131,484.0433131,484.0433131,space,2.3011032,486.7737097,,487.076993,487.076993,487.076993,200,27,"[5.341000700020231, 4.428008000017144, 11.87045049999142, 4.660540500015486, 5.277511599997524, 3.3787785000167787, 3.1774649000144564, 2.6615122000221163, 3.4789932999992743, 3.128056599991396, 7.059315100021195, 2.129718700016383, 11.10481129999971, 3.379162700031884, 3.5444295999477617, 2.746562400017865, 4.062598999997135, 4.1607945000287145, 6.142480999988038, 5.4759165000286885, 3.0955945000168867, 2.4813149999827147, 4.294847099983599, 5.460425500001293, 6.541998300002888, 5.677164599997923, 4.893932199978735]","[5.341013199998997, 4.428014400007669, 11.870459099998698, 4.66054750001058, 5.277519499999471, 3.3787836999981664, 3.1774701999966055, 2.6615179000073113, 3.4790009999996983, 3.128063199983444, 7.059321700013243, 2.129738899995573, 11.104817699990235, 3.3791692000231706, 3.5444344999850728, 2.7465707000228576, 4.062605100043584, 4.160800400015432, 6.142485299962573, 5.475923500023782, 3.095600900007412, 2.4813241999945603, 4.294853399973363, 5.460431299987249, 6.542006100004073, 5.677170899987686, 4.893938200024422]",1,1,2022-11-04_11h59.36.200,T7,2022.2.2,60.02458608
0.4,1000,exp,2,3,27,4,491.9692615,492.9683286,492.9683286,492.9683286,space,0.956654,494.3501834,494.6502108,494.6502108,494.6502108,494.6502108,100,28,"[5.341000700020231, 4.428008000017144, 11.87045049999142, 4.660540500015486, 5.277511599997524, 3.3787785000167787, 3.1774649000144564, 2.6615122000221163, 3.4789932999992743, 3.128056599991396, 7.059315100021195, 2.129718700016383, 11.10481129999971, 3.379162700031884, 3.5444295999477617, 2.746562400017865, 4.062598999997135, 4.1607945000287145, 6.142480999988038, 5.4759165000286885, 3.0955945000168867, 2.4813149999827147, 4.294847099983599, 5.460425500001293, 6.541998300002888, 5.677164599997923, 4.893932199978735, 1.6804268000414595]","[5.341013199998997, 4.428014400007669, 11.870459099998698, 4.66054750001058, 5.277519499999471, 3.3787836999981664, 3.1774701999966055, 2.6615179000073113, 3.4790009999996983, 3.128063199983444, 7.059321700013243, 2.129738899995573, 11.104817699990235, 3.3791692000231706, 3.5444344999850728, 2.7465707000228576, 4.062605100043584, 4.160800400015432, 6.142485299962573, 5.475923500023782, 3.095600900007412, 2.4813241999945603, 4.294853399973363, 5.460431299987249, 6.542006100004073, 5.677170899987686, 4.893938200024422, 1.6804327000281774]",1,1,2022-11-04_11h59.36.200,T7,2022.2.2,60.02458608
0.4,1000,exp,2,4,28,10,496.3316506,497.3309498,497.3309498,497.3309498,space,1.1502611,498.9122799,,499.2185523,499.2185523,499.2185523,100,29,"[5.341000700020231, 4.428008000017144, 11.87045049999142, 4.660540500015486, 5.277511599997524, 3.3787785000167787, 3.1774649000144564, 2.6615122000221163, 3.4789932999992743, 3.128056599991396, 7.059315100021195, 2.129718700016383, 11.10481129999971, 3.379162700031884, 3.5444295999477617, 2.746562400017865, 4.062598999997135, 4.1607945000287145, 6.142480999988038, 5.4759165000286885, 3.0955945000168867, 2.4813149999827147, 4.294847099983599, 5.460425500001293, 6.541998300002888, 5.677164599997923, 4.893932199978735, 1.6804268000414595, 2.1456302999868058]","[5.341013199998997, 4.428014400007669, 11.870459099998698, 4.66054750001058, 5.277519499999471, 3.3787836999981664, 3.1774701999966055, 2.6615179000073113, 3.4790009999996983, 3.128063199983444, 7.059321700013243, 2.129738899995573, 11.104817699990235, 3.3791692000231706, 3.5444344999850728, 2.7465707000228576, 4.062605100043584, 4.160800400015432, 6.142485299962573, 5.475923500023782, 3.095600900007412, 2.4813241999945603, 4.294853399973363, 5.460431299987249, 6.542006100004073, 5.677170899987686, 4.893938200024422, 1.6804327000281774, 2.14563869999256]",1,1,2022-11-04_11h59.36.200,T7,2022.2.2,60.02458608
0.7,1000,exp,2,5,29,11,501.3603661,502.3595118,502.3595118,502.3595118,space,1.8906981,504.9736392,505.27546,505.27546,505.27546,505.27546,200,30,"[5.341000700020231, 4.428008000017144, 11.87045049999142, 4.660540500015486, 5.277511599997524, 3.3787785000167787, 3.1774649000144564, 2.6615122000221163, 3.4789932999992743, 3.128056599991396, 7.059315100021195, 2.129718700016383, 11.10481129999971, 3.379162700031884, 3.5444295999477617, 2.746562400017865, 4.062598999997135, 4.1607945000287145, 6.142480999988038, 5.4759165000286885, 3.0955945000168867, 2.4813149999827147, 4.294847099983599, 5.460425500001293, 6.541998300002888, 5.677164599997923, 4.893932199978735, 1.6804268000414595, 2.1456302999868058, 4.42758210003376]","[5.341013199998997, 4.428014400007669, 11.870459099998698, 4.66054750001058, 5.277519499999471, 3.3787836999981664, 3.1774701999966055, 2.6615179000073113, 3.4790009999996983, 3.128063199983444, 7.059321700013243, 2.129738899995573, 11.104817699990235, 3.3791692000231706, 3.5444344999850728, 2.7465707000228576, 4.062605100043584, 4.160800400015432, 6.142485299962573, 5.475923500023782, 3.095600900007412, 2.4813241999945603, 4.294853399973363, 5.460431299987249, 6.542006100004073, 5.677170899987686, 4.893938200024422, 1.6804327000281774, 2.14563869999256, 4.427587300015148]",1,1,2022-11-04_11h59.36.200,T7,2022.2.2,60.02458608
0.1,1000,exp,2,6,30,6,509.7025481,510.7018715,510.7018715,510.7018715,space,1.8160175,512.6499731,512.950047,512.950047,512.950047,512.950047,350,31,"[5.341000700020231, 4.428008000017144, 11.87045049999142, 4.660540500015486, 5.277511599997524, 3.3787785000167787, 3.1774649000144564, 2.6615122000221163, 3.4789932999992743, 3.128056599991396, 7.059315100021195, 2.129718700016383, 11.10481129999971, 3.379162700031884, 3.5444295999477617, 2.746562400017865, 4.062598999997135, 4.1607945000287145, 6.142480999988038, 5.4759165000286885, 3.0955945000168867, 2.4813149999827147, 4.294847099983599, 5.460425500001293, 6.541998300002888, 5.677164599997923, 4.893932199978735, 1.6804268000414595, 2.1456302999868058, 4.42758210003376, 1.8796700999955647]","[5.341013199998997, 4.428014400007669, 11.870459099998698, 4.66054750001058, 5.277519499999471, 3.3787836999981664, 3.1774701999966055, 2.6615179000073113, 3.4790009999996983, 3.128063199983444, 7.059321700013243, 2.129738899995573, 11.104817699990235, 3.3791692000231706, 3.5444344999850728, 2.7465707000228576, 4.062605100043584, 4.160800400015432, 6.142485299962573, 5.475923500023782, 3.095600900007412, 2.4813241999945603, 4.294853399973363, 5.460431299987249, 6.542006100004073, 5.677170899987686, 4.893938200024422, 1.6804327000281774, 2.14563869999256, 4.427587300015148, 1.8796757999807596]",1,1,2022-11-04_11h59.36.200,T7,2022.2.2,60.02458608
0.7,1000,exp,2,7,31,8,514.8312884,515.8304736,515.8304736,515.8474802,space,2.0475885,518.5944812,,518.895189,518.895189,518.895189,400,32,"[5.341000700020231, 4.428008000017144, 11.87045049999142, 4.660540500015486, 5.277511599997524, 3.3787785000167787, 3.1774649000144564, 2.6615122000221163, 3.4789932999992743, 3.128056599991396, 7.059315100021195, 2.129718700016383, 11.10481129999971, 3.379162700031884, 3.5444295999477617, 2.746562400017865, 4.062598999997135, 4.1607945000287145, 6.142480999988038, 5.4759165000286885, 3.0955945000168867, 2.4813149999827147, 4.294847099983599, 5.460425500001293, 6.541998300002888, 5.677164599997923, 4.893932199978735, 1.6804268000414595, 2.1456302999868058, 4.42758210003376, 1.8796700999955647, 4.0278645000071265]","[5.341013199998997, 4.428014400007669, 11.870459099998698, 4.66054750001058, 5.277519499999471, 3.3787836999981664, 3.1774701999966055, 2.6615179000073113, 3.4790009999996983, 3.128063199983444, 7.059321700013243, 2.129738899995573, 11.104817699990235, 3.3791692000231706, 3.5444344999850728, 2.7465707000228576, 4.062605100043584, 4.160800400015432, 6.142485299962573, 5.475923500023782, 3.095600900007412, 2.4813241999945603, 4.294853399973363, 5.460431299987249, 6.542006100004073, 5.677170899987686, 4.893938200024422, 1.6804327000281774, 2.14563869999256, 4.427587300015148, 1.8796757999807596, 4.027875499974471]",1,1,2022-11-04_11h59.36.200,T7,2022.2.2,60.02458608
0.7,400,unexp,2,8,32,2,522.9236703,523.9229925,523.9229925,523.9229925,space,2.0138221,526.6534823,,526.9559468,526.9559468,526.9559468,500,33,"[5.341000700020231, 4.428008000017144, 11.87045049999142, 4.660540500015486, 5.277511599997524, 3.3787785000167787, 3.1774649000144564, 2.6615122000221163, 3.4789932999992743, 3.128056599991396, 7.059315100021195, 2.129718700016383, 11.10481129999971, 3.379162700031884, 3.5444295999477617, 2.746562400017865, 4.062598999997135, 4.1607945000287145, 6.142480999988038, 5.4759165000286885, 3.0955945000168867, 2.4813149999827147, 4.294847099983599, 5.460425500001293, 6.541998300002888, 5.677164599997923, 4.893932199978735, 1.6804268000414595, 2.1456302999868058, 4.42758210003376, 1.8796700999955647, 4.0278645000071265, 2.4458045000210404]","[5.341013199998997, 4.428014400007669, 11.870459099998698, 4.66054750001058, 5.277519499999471, 3.3787836999981664, 3.1774701999966055, 2.6615179000073113, 3.4790009999996983, 3.128063199983444, 7.059321700013243, 2.129738899995573, 11.104817699990235, 3.3791692000231706, 3.5444344999850728, 2.7465707000228576, 4.062605100043584, 4.160800400015432, 6.142485299962573, 5.475923500023782, 3.095600900007412, 2.4813241999945603, 4.294853399973363, 5.460431299987249, 6.542006100004073, 5.677170899987686, 4.893938200024422, 1.6804327000281774, 2.14563869999256, 4.427587300015148, 1.8796757999807596, 4.027875499974471, 2.4458096000016667]",1,1,2022-11-04_11h59.36.200,T7,2022.2.2,60.02458608
0.4,1000,exp,2,9,33,7,529.4009907,530.4005878,530.4005878,530.4005878,space,2.2046499,533.0309055,,533.3315658,533.3315658,533.3315658,400,34,"[5.341000700020231, 4.428008000017144, 11.87045049999142, 4.660540500015486, 5.277511599997524, 3.3787785000167787, 3.1774649000144564, 2.6615122000221163, 3.4789932999992743, 3.128056599991396, 7.059315100021195, 2.129718700016383, 11.10481129999971, 3.379162700031884, 3.5444295999477617, 2.746562400017865, 4.062598999997135, 4.1607945000287145, 6.142480999988038, 5.4759165000286885, 3.0955945000168867, 2.4813149999827147, 4.294847099983599, 5.460425500001293, 6.541998300002888, 5.677164599997923, 4.893932199978735, 1.6804268000414595, 2.1456302999868058, 4.42758210003376, 1.8796700999955647, 4.0278645000071265, 2.4458045000210404, 3.3782890999573283]","[5.341013199998997, 4.428014400007669, 11.870459099998698, 4.66054750001058, 5.277519499999471, 3.3787836999981664, 3.1774701999966055, 2.6615179000073113, 3.4790009999996983, 3.128063199983444, 7.059321700013243, 2.129738899995573, 11.104817699990235, 3.3791692000231706, 3.5444344999850728, 2.7465707000228576, 4.062605100043584, 4.160800400015432, 6.142485299962573, 5.475923500023782, 3.095600900007412, 2.4813241999945603, 4.294853399973363, 5.460431299987249, 6.542006100004073, 5.677170899987686, 4.893938200024422, 1.6804327000281774, 2.14563869999256, 4.427587300015148, 1.8796757999807596, 4.027875499974471, 2.4458096000016667, 3.3782933999900706]",1,1,2022-11-04_11h59.36.200,T7,2022.2.2,60.02458608
0.1,1000,exp,2,10,34,3,536.7106932,537.7101287,537.7101287,537.7101287,space,1.7694545,539.6083268,539.9079401,539.9079401,539.9079401,539.9079401,150,35,"[5.341000700020231, 4.428008000017144, 11.87045049999142, 4.660540500015486, 5.277511599997524, 3.3787785000167787, 3.1774649000144564, 2.6615122000221163, 3.4789932999992743, 3.128056599991396, 7.059315100021195, 2.129718700016383, 11.10481129999971, 3.379162700031884, 3.5444295999477617, 2.746562400017865, 4.062598999997135, 4.1607945000287145, 6.142480999988038, 5.4759165000286885, 3.0955945000168867, 2.4813149999827147, 4.294847099983599, 5.460425500001293, 6.541998300002888, 5.677164599997923, 4.893932199978735, 1.6804268000414595, 2.1456302999868058, 4.42758210003376, 1.8796700999955647, 4.0278645000071265, 2.4458045000210404, 3.3782890999573283, 2.163617099984549]","[5.341013199998997, 4.428014400007669, 11.870459099998698, 4.66054750001058, 5.277519499999471, 3.3787836999981664, 3.1774701999966055, 2.6615179000073113, 3.4790009999996983, 3.128063199983444, 7.059321700013243, 2.129738899995573, 11.104817699990235, 3.3791692000231706, 3.5444344999850728, 2.7465707000228576, 4.062605100043584, 4.160800400015432, 6.142485299962573, 5.475923500023782, 3.095600900007412, 2.4813241999945603, 4.294853399973363, 5.460431299987249, 6.542006100004073, 5.677170899987686, 4.893938200024422, 1.6804327000281774, 2.14563869999256, 4.427587300015148, 1.8796757999807596, 4.027875499974471, 2.4458096000016667, 3.3782933999900706, 2.1636226000264287]",1,1,2022-11-04_11h59.36.200,T7,2022.2.2,60.02458608
0.1,1000,exp,2,11,35,9,542.0727114,543.0719895,543.0719895,543.0719895,space,0.3229158,543.521409,,543.8206834,543.8206834,543.8206834,100,36,"[5.341000700020231, 4.428008000017144, 11.87045049999142, 4.660540500015486, 5.277511599997524, 3.3787785000167787, 3.1774649000144564, 2.6615122000221163, 3.4789932999992743, 3.128056599991396, 7.059315100021195, 2.129718700016383, 11.10481129999971, 3.379162700031884, 3.5444295999477617, 2.746562400017865, 4.062598999997135, 4.1607945000287145, 6.142480999988038, 5.4759165000286885, 3.0955945000168867, 2.4813149999827147, 4.294847099983599, 5.460425500001293, 6.541998300002888, 5.677164599997923, 4.893932199978735, 1.6804268000414595, 2.1456302999868058, 4.42758210003376, 1.8796700999955647, 4.0278645000071265, 2.4458045000210404, 3.3782890999573283, 2.163617099984549, 1.546980400045868]","[5.341013199998997, 4.428014400007669, 11.870459099998698, 4.66054750001058, 5.277519499999471, 3.3787836999981664, 3.1774701999966055, 2.6615179000073113, 3.4790009999996983, 3.128063199983444, 7.059321700013243, 2.129738899995573, 11.104817699990235, 3.3791692000231706, 3.5444344999850728, 2.7465707000228576, 4.062605100043584, 4.160800400015432, 6.142485299962573, 5.475923500023782, 3.095600900007412, 2.4813241999945603, 4.294853399973363, 5.460431299987249, 6.542006100004073, 5.677170899987686, 4.893938200024422, 1.6804327000281774, 2.14563869999256, 4.427587300015148, 1.8796757999807596, 4.027875499974471, 2.4458096000016667, 3.3782933999900706, 2.1636226000264287, 1.5469891999964602]",1,1,2022-11-04_11h59.36.200,T7,2022.2.2,60.02458608
0.1,1000,exp,3,0,36,6,545.369325,546.3687465,546.3687465,546.3687465,space,0.8299676,547.317845,,547.620033,547.620033,547.620033,70,37,"[5.341000700020231, 4.428008000017144, 11.87045049999142, 4.660540500015486, 5.277511599997524, 3.3787785000167787, 3.1774649000144564, 2.6615122000221163, 3.4789932999992743, 3.128056599991396, 7.059315100021195, 2.129718700016383, 11.10481129999971, 3.379162700031884, 3.5444295999477617, 2.746562400017865, 4.062598999997135, 4.1607945000287145, 6.142480999988038, 5.4759165000286885, 3.0955945000168867, 2.4813149999827147, 4.294847099983599, 5.460425500001293, 6.541998300002888, 5.677164599997923, 4.893932199978735, 1.6804268000414595, 2.1456302999868058, 4.42758210003376, 1.8796700999955647, 4.0278645000071265, 2.4458045000210404, 3.3782890999573283, 2.163617099984549, 1.546980400045868, 2.7951027000090107]","[5.341013199998997, 4.428014400007669, 11.870459099998698, 4.66054750001058, 5.277519499999471, 3.3787836999981664, 3.1774701999966055, 2.6615179000073113, 3.4790009999996983, 3.128063199983444, 7.059321700013243, 2.129738899995573, 11.104817699990235, 3.3791692000231706, 3.5444344999850728, 2.7465707000228576, 4.062605100043584, 4.160800400015432, 6.142485299962573, 5.475923500023782, 3.095600900007412, 2.4813241999945603, 4.294853399973363, 5.460431299987249, 6.542006100004073, 5.677170899987686, 4.893938200024422, 1.6804327000281774, 2.14563869999256, 4.427587300015148, 1.8796757999807596, 4.027875499974471, 2.4458096000016667, 3.3782933999900706, 2.1636226000264287, 1.5469891999964602, 2.7951085999957286]",1,1,2022-11-04_11h59.36.200,T7,2022.2.2,60.02458608
0.4,1000,exp,3,1,37,4,550.4147277,551.4139634,551.4139634,551.4139634,space,0.4568429,552.2963519,,552.5966833,552.5966833,552.5966833,100,38,"[5.341000700020231, 4.428008000017144, 11.87045049999142, 4.660540500015486, 5.277511599997524, 3.3787785000167787, 3.1774649000144564, 2.6615122000221163, 3.4789932999992743, 3.128056599991396, 7.059315100021195, 2.129718700016383, 11.10481129999971, 3.379162700031884, 3.5444295999477617, 2.746562400017865, 4.062598999997135, 4.1607945000287145, 6.142480999988038, 5.4759165000286885, 3.0955945000168867, 2.4813149999827147, 4.294847099983599, 5.460425500001293, 6.541998300002888, 5.677164599997923, 4.893932199978735, 1.6804268000414595, 2.1456302999868058, 4.42758210003376, 1.8796700999955647, 4.0278645000071265, 2.4458045000210404, 3.3782890999573283, 2.163617099984549, 1.546980400045868, 2.7951027000090107, 5.126282599987462]","[5.341013199998997, 4.428014400007669, 11.870459099998698, 4.66054750001058, 5.277519499999471, 3.3787836999981664, 3.1774701999966055, 2.6615179000073113, 3.4790009999996983, 3.128063199983444, 7.059321700013243, 2.129738899995573, 11.104817699990235, 3.3791692000231706, 3.5444344999850728, 2.7465707000228576, 4.062605100043584, 4.160800400015432, 6.142485299962573, 5.475923500023782, 3.095600900007412, 2.4813241999945603, 4.294853399973363, 5.460431299987249, 6.542006100004073, 5.677170899987686, 4.893938200024422, 1.6804327000281774, 2.14563869999256, 4.427587300015148, 1.8796757999807596, 4.027875499974471, 2.4458096000016667, 3.3782933999900706, 2.1636226000264287, 1.5469891999964602, 2.7951085999957286, 5.126288999977987]",1,1,2022-11-04_11h59.36.200,T7,2022.2.2,60.02458608
0.4,1000,exp,3,2,38,10,557.7250578,558.7239585,558.7239585,558.7407376,space,1.9202138,561.0716506,,561.371295,561.371295,561.371295,300,39,"[5.341000700020231, 4.428008000017144, 11.87045049999142, 4.660540500015486, 5.277511599997524, 3.3787785000167787, 3.1774649000144564, 2.6615122000221163, 3.4789932999992743, 3.128056599991396, 7.059315100021195, 2.129718700016383, 11.10481129999971, 3.379162700031884, 3.5444295999477617, 2.746562400017865, 4.062598999997135, 4.1607945000287145, 6.142480999988038, 5.4759165000286885, 3.0955945000168867, 2.4813149999827147, 4.294847099983599, 5.460425500001293, 6.541998300002888, 5.677164599997923, 4.893932199978735, 1.6804268000414595, 2.1456302999868058, 4.42758210003376, 1.8796700999955647, 4.0278645000071265, 2.4458045000210404, 3.3782890999573283, 2.163617099984549, 1.546980400045868, 2.7951027000090107, 5.126282599987462, 2.7478918000124395]","[5.341013199998997, 4.428014400007669, 11.870459099998698, 4.66054750001058, 5.277519499999471, 3.3787836999981664, 3.1774701999966055, 2.6615179000073113, 3.4790009999996983, 3.128063199983444, 7.059321700013243, 2.129738899995573, 11.104817699990235, 3.3791692000231706, 3.5444344999850728, 2.7465707000228576, 4.062605100043584, 4.160800400015432, 6.142485299962573, 5.475923500023782, 3.095600900007412, 2.4813241999945603, 4.294853399973363, 5.460431299987249, 6.542006100004073, 5.677170899987686, 4.893938200024422, 1.6804327000281774, 2.14563869999256, 4.427587300015148, 1.8796757999807596, 4.027875499974471, 2.4458096000016667, 3.3782933999900706, 2.1636226000264287, 1.5469891999964602, 2.7951085999957286, 5.126288999977987, 2.747901900031138]",1,1,2022-11-04_11h59.36.200,T7,2022.2.2,60.02458608
0.7,1000,exp,3,3,39,5,564.1186696,565.1179138,565.1179138,565.1179138,space,2.848981,568.6977844,568.9986041,568.9986041,568.9986041,568.9986041,600,40,"[5.341000700020231, 4.428008000017144, 11.87045049999142, 4.660540500015486, 5.277511599997524, 3.3787785000167787, 3.1774649000144564, 2.6615122000221163, 3.4789932999992743, 3.128056599991396, 7.059315100021195, 2.129718700016383, 11.10481129999971, 3.379162700031884, 3.5444295999477617, 2.746562400017865, 4.062598999997135, 4.1607945000287145, 6.142480999988038, 5.4759165000286885, 3.0955945000168867, 2.4813149999827147, 4.294847099983599, 5.460425500001293, 6.541998300002888, 5.677164599997923, 4.893932199978735, 1.6804268000414595, 2.1456302999868058, 4.42758210003376, 1.8796700999955647, 4.0278645000071265, 2.4458045000210404, 3.3782890999573283, 2.163617099984549, 1.546980400045868, 2.7951027000090107, 5.126282599987462, 2.7478918000124395, 2.9452823999454267]","[5.341013199998997, 4.428014400007669, 11.870459099998698, 4.66054750001058, 5.277519499999471, 3.3787836999981664, 3.1774701999966055, 2.6615179000073113, 3.4790009999996983, 3.128063199983444, 7.059321700013243, 2.129738899995573, 11.104817699990235, 3.3791692000231706, 3.5444344999850728, 2.7465707000228576, 4.062605100043584, 4.160800400015432, 6.142485299962573, 5.475923500023782, 3.095600900007412, 2.4813241999945603, 4.294853399973363, 5.460431299987249, 6.542006100004073, 5.677170899987686, 4.893938200024422, 1.6804327000281774, 2.14563869999256, 4.427587300015148, 1.8796757999807596, 4.027875499974471, 2.4458096000016667, 3.3782933999900706, 2.1636226000264287, 1.5469891999964602, 2.7951085999957286, 5.126288999977987, 2.747901900031138, 2.945288499991875]",1,1,2022-11-04_11h59.36.200,T7,2022.2.2,60.02458608
0.1,400,unexp,3,4,40,0,571.9444608,572.9440657,572.9440657,572.9440657,space,1.8403057,574.9087705,575.2096999,575.2096999,575.2096999,575.2096999,350,41,"[5.341000700020231, 4.428008000017144, 11.87045049999142, 4.660540500015486, 5.277511599997524, 3.3787785000167787, 3.1774649000144564, 2.6615122000221163, 3.4789932999992743, 3.128056599991396, 7.059315100021195, 2.129718700016383, 11.10481129999971, 3.379162700031884, 3.5444295999477617, 2.746562400017865, 4.062598999997135, 4.1607945000287145, 6.142480999988038, 5.4759165000286885, 3.0955945000168867, 2.4813149999827147, 4.294847099983599, 5.460425500001293, 6.541998300002888, 5.677164599997923, 4.893932199978735, 1.6804268000414595, 2.1456302999868058, 4.42758210003376, 1.8796700999955647, 4.0278645000071265, 2.4458045000210404, 3.3782890999573283, 2.163617099984549, 1.546980400045868, 2.7951027000090107, 5.126282599987462, 2.7478918000124395, 2.9452823999454267, 5.144436700036749]","[5.341013199998997, 4.428014400007669, 11.870459099998698, 4.66054750001058, 5.277519499999471, 3.3787836999981664, 3.1774701999966055, 2.6615179000073113, 3.4790009999996983, 3.128063199983444, 7.059321700013243, 2.129738899995573, 11.104817699990235, 3.3791692000231706, 3.5444344999850728, 2.7465707000228576, 4.062605100043584, 4.160800400015432, 6.142485299962573, 5.475923500023782, 3.095600900007412, 2.4813241999945603, 4.294853399973363, 5.460431299987249, 6.542006100004073, 5.677170899987686, 4.893938200024422, 1.6804327000281774, 2.14563869999256, 4.427587300015148, 1.8796757999807596, 4.027875499974471, 2.4458096000016667, 3.3782933999900706, 2.1636226000264287, 1.5469891999964602, 2.7951085999957286, 5.126288999977987, 2.747901900031138, 2.945288499991875, 5.144446199992672]",1,1,2022-11-04_11h59.36.200,T7,2022.2.2,60.02458608
0.1,1000,exp,3,5,41,9,580.3537783,581.3531372,581.3531372,581.3531372,space,1.8507285,583.3340722,,583.6352788,583.6352788,583.6352788,410,42,"[5.341000700020231, 4.428008000017144, 11.87045049999142, 4.660540500015486, 5.277511599997524, 3.3787785000167787, 3.1774649000144564, 2.6615122000221163, 3.4789932999992743, 3.128056599991396, 7.059315100021195, 2.129718700016383, 11.10481129999971, 3.379162700031884, 3.5444295999477617, 2.746562400017865, 4.062598999997135, 4.1607945000287145, 6.142480999988038, 5.4759165000286885, 3.0955945000168867, 2.4813149999827147, 4.294847099983599, 5.460425500001293, 6.541998300002888, 5.677164599997923, 4.893932199978735, 1.6804268000414595, 2.1456302999868058, 4.42758210003376, 1.8796700999955647, 4.0278645000071265, 2.4458045000210404, 3.3782890999573283, 2.163617099984549, 1.546980400045868, 2.7951027000090107, 5.126282599987462, 2.7478918000124395, 2.9452823999454267, 5.144436700036749, 8.257073000015225]","[5.341013199998997, 4.428014400007669, 11.870459099998698, 4.66054750001058, 5.277519499999471, 3.3787836999981664, 3.1774701999966055, 2.6615179000073113, 3.4790009999996983, 3.128063199983444, 7.059321700013243, 2.129738899995573, 11.104817699990235, 3.3791692000231706, 3.5444344999850728, 2.7465707000228576, 4.062605100043584, 4.160800400015432, 6.142485299962573, 5.475923500023782, 3.095600900007412, 2.4813241999945603, 4.294853399973363, 5.460431299987249, 6.542006100004073, 5.677170899987686, 4.893938200024422, 1.6804327000281774, 2.14563869999256, 4.427587300015148, 1.8796757999807596, 4.027875499974471, 2.4458096000016667, 3.3782933999900706, 2.1636226000264287, 1.5469891999964602, 2.7951085999957286, 5.126288999977987, 2.747901900031138, 2.945288499991875, 5.144446199992672, 8.257078199996613]",1,1,2022-11-04_11h59.36.200,T7,2022.2.2,60.02458608
0.4,1000,exp,3,6,42,7,591.8929837,592.8920806,592.8920806,592.908579,space,2.1235355,595.4398462,595.7408139,595.7408139,595.7408139,595.7408139,350,43,"[5.341000700020231, 4.428008000017144, 11.87045049999142, 4.660540500015486, 5.277511599997524, 3.3787785000167787, 3.1774649000144564, 2.6615122000221163, 3.4789932999992743, 3.128056599991396, 7.059315100021195, 2.129718700016383, 11.10481129999971, 3.379162700031884, 3.5444295999477617, 2.746562400017865, 4.062598999997135, 4.1607945000287145, 6.142480999988038, 5.4759165000286885, 3.0955945000168867, 2.4813149999827147, 4.294847099983599, 5.460425500001293, 6.541998300002888, 5.677164599997923, 4.893932199978735, 1.6804268000414595, 2.1456302999868058, 4.42758210003376, 1.8796700999955647, 4.0278645000071265, 2.4458045000210404, 3.3782890999573283, 2.163617099984549, 1.546980400045868, 2.7951027000090107, 5.126282599987462, 2.7478918000124395, 2.9452823999454267, 5.144436700036749, 8.257073000015225, 4.446031900006346]","[5.341013199998997, 4.428014400007669, 11.870459099998698, 4.66054750001058, 5.277519499999471, 3.3787836999981664, 3.1774701999966055, 2.6615179000073113, 3.4790009999996983, 3.128063199983444, 7.059321700013243, 2.129738899995573, 11.104817699990235, 3.3791692000231706, 3.5444344999850728, 2.7465707000228576, 4.062605100043584, 4.160800400015432, 6.142485299962573, 5.475923500023782, 3.095600900007412, 2.4813241999945603, 4.294853399973363, 5.460431299987249, 6.542006100004073, 5.677170899987686, 4.893938200024422, 1.6804327000281774, 2.14563869999256, 4.427587300015148, 1.8796757999807596, 4.027875499974471, 2.4458096000016667, 3.3782933999900706, 2.1636226000264287, 1.5469891999964602, 2.7951085999957286, 5.126288999977987, 2.747901900031138, 2.945288499991875, 5.144446199992672, 8.257078199996613, 4.446064300020225]",1,1,2022-11-04_11h59.36.200,T7,2022.2.2,60.02458608
0.4,400,unexp,3,7,43,1,600.1853383,601.1845476,601.1845476,601.1845476,space,1.4566957,603.0656897,603.365686,603.365686,603.365686,603.365686,100,44,"[5.341000700020231, 4.428008000017144, 11.87045049999142, 4.660540500015486, 5.277511599997524, 3.3787785000167787, 3.1774649000144564, 2.6615122000221163, 3.4789932999992743, 3.128056599991396, 7.059315100021195, 2.129718700016383, 11.10481129999971, 3.379162700031884, 3.5444295999477617, 2.746562400017865, 4.062598999997135, 4.1607945000287145, 6.142480999988038, 5.4759165000286885, 3.0955945000168867, 2.4813149999827147, 4.294847099983599, 5.460425500001293, 6.541998300002888, 5.677164599997923, 4.893932199978735, 1.6804268000414595, 2.1456302999868058, 4.42758210003376, 1.8796700999955647, 4.0278645000071265, 2.4458045000210404, 3.3782890999573283, 2.163617099984549, 1.546980400045868, 2.7951027000090107, 5.126282599987462, 2.7478918000124395, 2.9452823999454267, 5.144436700036749, 8.257073000015225, 4.446031900006346, 1.5822018000180833]","[5.341013199998997, 4.428014400007669, 11.870459099998698, 4.66054750001058, 5.277519499999471, 3.3787836999981664, 3.1774701999966055, 2.6615179000073113, 3.4790009999996983, 3.128063199983444, 7.059321700013243, 2.129738899995573, 11.104817699990235, 3.3791692000231706, 3.5444344999850728, 2.7465707000228576, 4.062605100043584, 4.160800400015432, 6.142485299962573, 5.475923500023782, 3.095600900007412, 2.4813241999945603, 4.294853399973363, 5.460431299987249, 6.542006100004073, 5.677170899987686, 4.893938200024422, 1.6804327000281774, 2.14563869999256, 4.427587300015148, 1.8796757999807596, 4.027875499974471, 2.4458096000016667, 3.3782933999900706, 2.1636226000264287, 1.5469891999964602, 2.7951085999957286, 5.126288999977987, 2.747901900031138, 2.945288499991875, 5.144446199992672, 8.257078199996613, 4.446064300020225, 1.5822093000169843]",1,1,2022-11-04_11h59.36.200,T7,2022.2.2,60.02458608
0.7,1000,exp,3,8,44,11,604.9476685,605.9467721,605.9467721,605.9467721,space,0.3156878,606.9790313,607.2814126,607.2814126,607.2814126,607.2814126,120,45,"[5.341000700020231, 4.428008000017144, 11.87045049999142, 4.660540500015486, 5.277511599997524, 3.3787785000167787, 3.1774649000144564, 2.6615122000221163, 3.4789932999992743, 3.128056599991396, 7.059315100021195, 2.129718700016383, 11.10481129999971, 3.379162700031884, 3.5444295999477617, 2.746562400017865, 4.062598999997135, 4.1607945000287145, 6.142480999988038, 5.4759165000286885, 3.0955945000168867, 2.4813149999827147, 4.294847099983599, 5.460425500001293, 6.541998300002888, 5.677164599997923, 4.893932199978735, 1.6804268000414595, 2.1456302999868058, 4.42758210003376, 1.8796700999955647, 4.0278645000071265, 2.4458045000210404, 3.3782890999573283, 2.163617099984549, 1.546980400045868, 2.7951027000090107, 5.126282599987462, 2.7478918000124395, 2.9452823999454267, 5.144436700036749, 8.257073000015225, 4.446031900006346, 1.5822018000180833, 1.9632725999690592]","[5.341013199998997, 4.428014400007669, 11.870459099998698, 4.66054750001058, 5.277519499999471, 3.3787836999981664, 3.1774701999966055, 2.6615179000073113, 3.4790009999996983, 3.128063199983444, 7.059321700013243, 2.129738899995573, 11.104817699990235, 3.3791692000231706, 3.5444344999850728, 2.7465707000228576, 4.062605100043584, 4.160800400015432, 6.142485299962573, 5.475923500023782, 3.095600900007412, 2.4813241999945603, 4.294853399973363, 5.460431299987249, 6.542006100004073, 5.677170899987686, 4.893938200024422, 1.6804327000281774, 2.14563869999256, 4.427587300015148, 1.8796757999807596, 4.027875499974471, 2.4458096000016667, 3.3782933999900706, 2.1636226000264287, 1.5469891999964602, 2.7951085999957286, 5.126288999977987, 2.747901900031138, 2.945288499991875, 5.144446199992672, 8.257078199996613, 4.446064300020225, 1.5822093000169843, 1.9632788999588229]",1,1,2022-11-04_11h59.36.200,T7,2022.2.2,60.02458608
0.1,1000,exp,3,9,45,3,609.2435749,610.2429496,610.2429496,610.2429496,space,1.0422452,611.4082744,611.7088181,611.7088181,611.7088181,611.7088181,100,46,"[5.341000700020231, 4.428008000017144, 11.87045049999142, 4.660540500015486, 5.277511599997524, 3.3787785000167787, 3.1774649000144564, 2.6615122000221163, 3.4789932999992743, 3.128056599991396, 7.059315100021195, 2.129718700016383, 11.10481129999971, 3.379162700031884, 3.5444295999477617, 2.746562400017865, 4.062598999997135, 4.1607945000287145, 6.142480999988038, 5.4759165000286885, 3.0955945000168867, 2.4813149999827147, 4.294847099983599, 5.460425500001293, 6.541998300002888, 5.677164599997923, 4.893932199978735, 1.6804268000414595, 2.1456302999868058, 4.42758210003376, 1.8796700999955647, 4.0278645000071265, 2.4458045000210404, 3.3782890999573283, 2.163617099984549, 1.546980400045868, 2.7951027000090107, 5.126282599987462, 2.7478918000124395, 2.9452823999454267, 5.144436700036749, 8.257073000015225, 4.446031900006346, 1.5822018000180833, 1.9632725999690592, 3.045194900012575]","[5.341013199998997, 4.428014400007669, 11.870459099998698, 4.66054750001058, 5.277519499999471, 3.3787836999981664, 3.1774701999966055, 2.6615179000073113, 3.4790009999996983, 3.128063199983444, 7.059321700013243, 2.129738899995573, 11.104817699990235, 3.3791692000231706, 3.5444344999850728, 2.7465707000228576, 4.062605100043584, 4.160800400015432, 6.142485299962573, 5.475923500023782, 3.095600900007412, 2.4813241999945603, 4.294853399973363, 5.460431299987249, 6.542006100004073, 5.677170899987686, 4.893938200024422, 1.6804327000281774, 2.14563869999256, 4.427587300015148, 1.8796757999807596, 4.027875499974471, 2.4458096000016667, 3.3782933999900706, 2.1636226000264287, 1.5469891999964602, 2.7951085999957286, 5.126288999977987, 2.747901900031138, 2.945288499991875, 5.144446199992672, 8.257078199996613, 4.446064300020225, 1.5822093000169843, 1.9632788999588229, 3.045201500004623]",1,1,2022-11-04_11h59.36.200,T7,2022.2.2,60.02458608
0.7,1000,exp,3,10,46,8,614.7550431,615.754258,615.754258,615.754258,space,1.4292711,617.901948,,618.206387,618.206387,618.206387,160,47,"[5.341000700020231, 4.428008000017144, 11.87045049999142, 4.660540500015486, 5.277511599997524, 3.3787785000167787, 3.1774649000144564, 2.6615122000221163, 3.4789932999992743, 3.128056599991396, 7.059315100021195, 2.129718700016383, 11.10481129999971, 3.379162700031884, 3.5444295999477617, 2.746562400017865, 4.062598999997135, 4.1607945000287145, 6.142480999988038, 5.4759165000286885, 3.0955945000168867, 2.4813149999827147, 4.294847099983599, 5.460425500001293, 6.541998300002888, 5.677164599997923, 4.893932199978735, 1.6804268000414595, 2.1456302999868058, 4.42758210003376, 1.8796700999955647, 4.0278645000071265, 2.4458045000210404, 3.3782890999573283, 2.163617099984549, 1.546980400045868, 2.7951027000090107, 5.126282599987462, 2.7478918000124395, 2.9452823999454267, 5.144436700036749, 8.257073000015225, 4.446031900006346, 1.5822018000180833, 1.9632725999690592, 3.045194900012575, 7.958158100023866]","[5.341013199998997, 4.428014400007669, 11.870459099998698, 4.66054750001058, 5.277519499999471, 3.3787836999981664, 3.1774701999966055, 2.6615179000073113, 3.4790009999996983, 3.128063199983444, 7.059321700013243, 2.129738899995573, 11.104817699990235, 3.3791692000231706, 3.5444344999850728, 2.7465707000228576, 4.062605100043584, 4.160800400015432, 6.142485299962573, 5.475923500023782, 3.095600900007412, 2.4813241999945603, 4.294853399973363, 5.460431299987249, 6.542006100004073, 5.677170899987686, 4.893938200024422, 1.6804327000281774, 2.14563869999256, 4.427587300015148, 1.8796757999807596, 4.027875499974471, 2.4458096000016667, 3.3782933999900706, 2.1636226000264287, 1.5469891999964602, 2.7951085999957286, 5.126288999977987, 2.747901900031138, 2.945288499991875, 5.144446199992672, 8.257078199996613, 4.446064300020225, 1.5822093000169843, 1.9632788999588229, 3.045201500004623, 7.958166199969128]",1,1,2022-11-04_11h59.36.200,T7,2022.2.2,60.02458608
0.7,400,unexp,3,11,47,2,626.1613325,627.1605141,627.1605141,627.1605141,space,0.5443348,628.4253545,,628.7253512,628.7253512,628.7253512,100,48,"[5.341000700020231, 4.428008000017144, 11.87045049999142, 4.660540500015486, 5.277511599997524, 3.3787785000167787, 3.1774649000144564, 2.6615122000221163, 3.4789932999992743, 3.128056599991396, 7.059315100021195, 2.129718700016383, 11.10481129999971, 3.379162700031884, 3.5444295999477617, 2.746562400017865, 4.062598999997135, 4.1607945000287145, 6.142480999988038, 5.4759165000286885, 3.0955945000168867, 2.4813149999827147, 4.294847099983599, 5.460425500001293, 6.541998300002888, 5.677164599997923, 4.893932199978735, 1.6804268000414595, 2.1456302999868058, 4.42758210003376, 1.8796700999955647, 4.0278645000071265, 2.4458045000210404, 3.3782890999573283, 2.163617099984549, 1.546980400045868, 2.7951027000090107, 5.126282599987462, 2.7478918000124395, 2.9452823999454267, 5.144436700036749, 8.257073000015225, 4.446031900006346, 1.5822018000180833, 1.9632725999690592, 3.045194900012575, 7.958158100023866, 3.0633410000009462]","[5.341013199998997, 4.428014400007669, 11.870459099998698, 4.66054750001058, 5.277519499999471, 3.3787836999981664, 3.1774701999966055, 2.6615179000073113, 3.4790009999996983, 3.128063199983444, 7.059321700013243, 2.129738899995573, 11.104817699990235, 3.3791692000231706, 3.5444344999850728, 2.7465707000228576, 4.062605100043584, 4.160800400015432, 6.142485299962573, 5.475923500023782, 3.095600900007412, 2.4813241999945603, 4.294853399973363, 5.460431299987249, 6.542006100004073, 5.677170899987686, 4.893938200024422, 1.6804327000281774, 2.14563869999256, 4.427587300015148, 1.8796757999807596, 4.027875499974471, 2.4458096000016667, 3.3782933999900706, 2.1636226000264287, 1.5469891999964602, 2.7951085999957286, 5.126288999977987, 2.747901900031138, 2.945288499991875, 5.144446199992672, 8.257078199996613, 4.446064300020225, 1.5822093000169843, 1.9632788999588229, 3.045201500004623, 7.958166199969128, 3.0633484999998473]",1,1,2022-11-04_11h59.36.200,T7,2022.2.2,60.02458608
0.4,1000,exp,4,0,48,4,631.7893007,632.7883192,632.7883192,632.7883192,space,2.8431515,636.0520353,,636.3524152,636.3524152,636.3524152,450,49,"[5.341000700020231, 4.428008000017144, 11.87045049999142, 4.660540500015486, 5.277511599997524, 3.3787785000167787, 3.1774649000144564, 2.6615122000221163, 3.4789932999992743, 3.128056599991396, 7.059315100021195, 2.129718700016383, 11.10481129999971, 3.379162700031884, 3.5444295999477617, 2.746562400017865, 4.062598999997135, 4.1607945000287145, 6.142480999988038, 5.4759165000286885, 3.0955945000168867, 2.4813149999827147, 4.294847099983599, 5.460425500001293, 6.541998300002888, 5.677164599997923, 4.893932199978735, 1.6804268000414595, 2.1456302999868058, 4.42758210003376, 1.8796700999955647, 4.0278645000071265, 2.4458045000210404, 3.3782890999573283, 2.163617099984549, 1.546980400045868, 2.7951027000090107, 5.126282599987462, 2.7478918000124395, 2.9452823999454267, 5.144436700036749, 8.257073000015225, 4.446031900006346, 1.5822018000180833, 1.9632725999690592, 3.045194900012575, 7.958158100023866, 3.0633410000009462, 1.9298981999745592]","[5.341013199998997, 4.428014400007669, 11.870459099998698, 4.66054750001058, 5.277519499999471, 3.3787836999981664, 3.1774701999966055, 2.6615179000073113, 3.4790009999996983, 3.128063199983444, 7.059321700013243, 2.129738899995573, 11.104817699990235, 3.3791692000231706, 3.5444344999850728, 2.7465707000228576, 4.062605100043584, 4.160800400015432, 6.142485299962573, 5.475923500023782, 3.095600900007412, 2.4813241999945603, 4.294853399973363, 5.460431299987249, 6.542006100004073, 5.677170899987686, 4.893938200024422, 1.6804327000281774, 2.14563869999256, 4.427587300015148, 1.8796757999807596, 4.027875499974471, 2.4458096000016667, 3.3782933999900706, 2.1636226000264287, 1.5469891999964602, 2.7951085999957286, 5.126288999977987, 2.747901900031138, 2.945288499991875, 5.144446199992672, 8.257078199996613, 4.446064300020225, 1.5822093000169843, 1.9632788999588229, 3.045201500004623, 7.958166199969128, 3.0633484999998473, 1.9299065999803133]",1,1,2022-11-04_11h59.36.200,T7,2022.2.2,60.02458608
0.7,400,unexp,4,1,49,2,638.2832707,639.2827494,639.2827494,639.2827494,space,1.791543,641.796772,,642.0982325,642.0982325,642.0982325,300,50,"[5.341000700020231, 4.428008000017144, 11.87045049999142, 4.660540500015486, 5.277511599997524, 3.3787785000167787, 3.1774649000144564, 2.6615122000221163, 3.4789932999992743, 3.128056599991396, 7.059315100021195, 2.129718700016383, 11.10481129999971, 3.379162700031884, 3.5444295999477617, 2.746562400017865, 4.062598999997135, 4.1607945000287145, 6.142480999988038, 5.4759165000286885, 3.0955945000168867, 2.4813149999827147, 4.294847099983599, 5.460425500001293, 6.541998300002888, 5.677164599997923, 4.893932199978735, 1.6804268000414595, 2.1456302999868058, 4.42758210003376, 1.8796700999955647, 4.0278645000071265, 2.4458045000210404, 3.3782890999573283, 2.163617099984549, 1.546980400045868, 2.7951027000090107, 5.126282599987462, 2.7478918000124395, 2.9452823999454267, 5.144436700036749, 8.257073000015225, 4.446031900006346, 1.5822018000180833, 1.9632725999690592, 3.045194900012575, 7.958158100023866, 3.0633410000009462, 1.9298981999745592, 3.029416000004858]","[5.341013199998997, 4.428014400007669, 11.870459099998698, 4.66054750001058, 5.277519499999471, 3.3787836999981664, 3.1774701999966055, 2.6615179000073113, 3.4790009999996983, 3.128063199983444, 7.059321700013243, 2.129738899995573, 11.104817699990235, 3.3791692000231706, 3.5444344999850728, 2.7465707000228576, 4.062605100043584, 4.160800400015432, 6.142485299962573, 5.475923500023782, 3.095600900007412, 2.4813241999945603, 4.294853399973363, 5.460431299987249, 6.542006100004073, 5.677170899987686, 4.893938200024422, 1.6804327000281774, 2.14563869999256, 4.427587300015148, 1.8796757999807596, 4.027875499974471, 2.4458096000016667, 3.3782933999900706, 2.1636226000264287, 1.5469891999964602, 2.7951085999957286, 5.126288999977987, 2.747901900031138, 2.945288499991875, 5.144446199992672, 8.257078199996613, 4.446064300020225, 1.5822093000169843, 1.9632788999588229, 3.045201500004623, 7.958166199969128, 3.0633484999998473, 1.9299065999803133, 3.0294276000349782]",1,1,2022-11-04_11h59.36.200,T7,2022.2.2,60.02458608
0.4,1000,exp,4,2,50,7,645.1268951,646.1261423,646.1261423,646.1261423,space,4.168038,650.7216489,651.02384,651.02384,651.02384,651.02384,800,51,"[5.341000700020231, 4.428008000017144, 11.87045049999142, 4.660540500015486, 5.277511599997524, 3.3787785000167787, 3.1774649000144564, 2.6615122000221163, 3.4789932999992743, 3.128056599991396, 7.059315100021195, 2.129718700016383, 11.10481129999971, 3.379162700031884, 3.5444295999477617, 2.746562400017865, 4.062598999997135, 4.1607945000287145, 6.142480999988038, 5.4759165000286885, 3.0955945000168867, 2.4813149999827147, 4.294847099983599, 5.460425500001293, 6.541998300002888, 5.677164599997923, 4.893932199978735, 1.6804268000414595, 2.1456302999868058, 4.42758210003376, 1.8796700999955647, 4.0278645000071265, 2.4458045000210404, 3.3782890999573283, 2.163617099984549, 1.546980400045868, 2.7951027000090107, 5.126282599987462, 2.7478918000124395, 2.9452823999454267, 5.144436700036749, 8.257073000015225, 4.446031900006346, 1.5822018000180833, 1.9632725999690592, 3.045194900012575, 7.958158100023866, 3.0633410000009462, 1.9298981999745592, 3.029416000004858, 2.712648499989882]","[5.341013199998997, 4.428014400007669, 11.870459099998698, 4.66054750001058, 5.277519499999471, 3.3787836999981664, 3.1774701999966055, 2.6615179000073113, 3.4790009999996983, 3.128063199983444, 7.059321700013243, 2.129738899995573, 11.104817699990235, 3.3791692000231706, 3.5444344999850728, 2.7465707000228576, 4.062605100043584, 4.160800400015432, 6.142485299962573, 5.475923500023782, 3.095600900007412, 2.4813241999945603, 4.294853399973363, 5.460431299987249, 6.542006100004073, 5.677170899987686, 4.893938200024422, 1.6804327000281774, 2.14563869999256, 4.427587300015148, 1.8796757999807596, 4.027875499974471, 2.4458096000016667, 3.3782933999900706, 2.1636226000264287, 1.5469891999964602, 2.7951085999957286, 5.126288999977987, 2.747901900031138, 2.945288499991875, 5.144446199992672, 8.257078199996613, 4.446064300020225, 1.5822093000169843, 1.9632788999588229, 3.045201500004623, 7.958166199969128, 3.0633484999998473, 1.9299065999803133, 3.0294276000349782, 2.7126537000294775]",1,1,2022-11-04_11h59.36.200,T7,2022.2.2,60.02458608
0.7,1000,exp,4,3,51,8,653.7355056,654.7347481,654.7347481,654.7347481,space,0.3924382,655.8501506,,656.1531596,656.1531596,656.1531596,120,52,"[5.341000700020231, 4.428008000017144, 11.87045049999142, 4.660540500015486, 5.277511599997524, 3.3787785000167787, 3.1774649000144564, 2.6615122000221163, 3.4789932999992743, 3.128056599991396, 7.059315100021195, 2.129718700016383, 11.10481129999971, 3.379162700031884, 3.5444295999477617, 2.746562400017865, 4.062598999997135, 4.1607945000287145, 6.142480999988038, 5.4759165000286885, 3.0955945000168867, 2.4813149999827147, 4.294847099983599, 5.460425500001293, 6.541998300002888, 5.677164599997923, 4.893932199978735, 1.6804268000414595, 2.1456302999868058, 4.42758210003376, 1.8796700999955647, 4.0278645000071265, 2.4458045000210404, 3.3782890999573283, 2.163617099984549, 1.546980400045868, 2.7951027000090107, 5.126282599987462, 2.7478918000124395, 2.9452823999454267, 5.144436700036749, 8.257073000015225, 4.446031900006346, 1.5822018000180833, 1.9632725999690592, 3.045194900012575, 7.958158100023866, 3.0633410000009462, 1.9298981999745592, 3.029416000004858, 2.712648499989882, 4.82813639997039]","[5.341013199998997, 4.428014400007669, 11.870459099998698, 4.66054750001058, 5.277519499999471, 3.3787836999981664, 3.1774701999966055, 2.6615179000073113, 3.4790009999996983, 3.128063199983444, 7.059321700013243, 2.129738899995573, 11.104817699990235, 3.3791692000231706, 3.5444344999850728, 2.7465707000228576, 4.062605100043584, 4.160800400015432, 6.142485299962573, 5.475923500023782, 3.095600900007412, 2.4813241999945603, 4.294853399973363, 5.460431299987249, 6.542006100004073, 5.677170899987686, 4.893938200024422, 1.6804327000281774, 2.14563869999256, 4.427587300015148, 1.8796757999807596, 4.027875499974471, 2.4458096000016667, 3.3782933999900706, 2.1636226000264287, 1.5469891999964602, 2.7951085999957286, 5.126288999977987, 2.747901900031138, 2.945288499991875, 5.144446199992672, 8.257078199996613, 4.446064300020225, 1.5822093000169843, 1.9632788999588229, 3.045201500004623, 7.958166199969128, 3.0633484999998473, 1.9299065999803133, 3.0294276000349782, 2.7126537000294775, 4.828143700025976]",1,1,2022-11-04_11h59.36.200,T7,2022.2.2,60.02458608
0.1,1000,exp,4,4,52,3,660.9788766,661.9783903,661.9783903,661.9948018,space,2.1628829,664.2591654,664.560725,664.560725,664.560725,664.560725,600,53,"[5.341000700020231, 4.428008000017144, 11.87045049999142, 4.660540500015486, 5.277511599997524, 3.3787785000167787, 3.1774649000144564, 2.6615122000221163, 3.4789932999992743, 3.128056599991396, 7.059315100021195, 2.129718700016383, 11.10481129999971, 3.379162700031884, 3.5444295999477617, 2.746562400017865, 4.062598999997135, 4.1607945000287145, 6.142480999988038, 5.4759165000286885, 3.0955945000168867, 2.4813149999827147, 4.294847099983599, 5.460425500001293, 6.541998300002888, 5.677164599997923, 4.893932199978735, 1.6804268000414595, 2.1456302999868058, 4.42758210003376, 1.8796700999955647, 4.0278645000071265, 2.4458045000210404, 3.3782890999573283, 2.163617099984549, 1.546980400045868, 2.7951027000090107, 5.126282599987462, 2.7478918000124395, 2.9452823999454267, 5.144436700036749, 8.257073000015225, 4.446031900006346, 1.5822018000180833, 1.9632725999690592, 3.045194900012575, 7.958158100023866, 3.0633410000009462, 1.9298981999745592, 3.029416000004858, 2.712648499989882, 4.82813639997039, 3.8443756999913603]","[5.341013199998997, 4.428014400007669, 11.870459099998698, 4.66054750001058, 5.277519499999471, 3.3787836999981664, 3.1774701999966055, 2.6615179000073113, 3.4790009999996983, 3.128063199983444, 7.059321700013243, 2.129738899995573, 11.104817699990235, 3.3791692000231706, 3.5444344999850728, 2.7465707000228576, 4.062605100043584, 4.160800400015432, 6.142485299962573, 5.475923500023782, 3.095600900007412, 2.4813241999945603, 4.294853399973363, 5.460431299987249, 6.542006100004073, 5.677170899987686, 4.893938200024422, 1.6804327000281774, 2.14563869999256, 4.427587300015148, 1.8796757999807596, 4.027875499974471, 2.4458096000016667, 3.3782933999900706, 2.1636226000264287, 1.5469891999964602, 2.7951085999957286, 5.126288999977987, 2.747901900031138, 2.945288499991875, 5.144446199992672, 8.257078199996613, 4.446064300020225, 1.5822093000169843, 1.9632788999588229, 3.045201500004623, 7.958166199969128, 3.0633484999998473, 1.9299065999803133, 3.0294276000349782, 2.7126537000294775, 4.828143700025976, 3.8443806000286713]",1,1,2022-11-04_11h59.36.200,T7,2022.2.2,60.02458608
0.1,400,unexp,4,5,53,0,668.4055015,669.4048226,669.4048226,669.4048226,space,1.651041,671.1858534,,671.4866054,671.4866054,671.4866054,200,54,"[5.341000700020231, 4.428008000017144, 11.87045049999142, 4.660540500015486, 5.277511599997524, 3.3787785000167787, 3.1774649000144564, 2.6615122000221163, 3.4789932999992743, 3.128056599991396, 7.059315100021195, 2.129718700016383, 11.10481129999971, 3.379162700031884, 3.5444295999477617, 2.746562400017865, 4.062598999997135, 4.1607945000287145, 6.142480999988038, 5.4759165000286885, 3.0955945000168867, 2.4813149999827147, 4.294847099983599, 5.460425500001293, 6.541998300002888, 5.677164599997923, 4.893932199978735, 1.6804268000414595, 2.1456302999868058, 4.42758210003376, 1.8796700999955647, 4.0278645000071265, 2.4458045000210404, 3.3782890999573283, 2.163617099984549, 1.546980400045868, 2.7951027000090107, 5.126282599987462, 2.7478918000124395, 2.9452823999454267, 5.144436700036749, 8.257073000015225, 4.446031900006346, 1.5822018000180833, 1.9632725999690592, 3.045194900012575, 7.958158100023866, 3.0633410000009462, 1.9298981999745592, 3.029416000004858, 2.712648499989882, 4.82813639997039, 3.8443756999913603, 6.026901500008535]","[5.341013199998997, 4.428014400007669, 11.870459099998698, 4.66054750001058, 5.277519499999471, 3.3787836999981664, 3.1774701999966055, 2.6615179000073113, 3.4790009999996983, 3.128063199983444, 7.059321700013243, 2.129738899995573, 11.104817699990235, 3.3791692000231706, 3.5444344999850728, 2.7465707000228576, 4.062605100043584, 4.160800400015432, 6.142485299962573, 5.475923500023782, 3.095600900007412, 2.4813241999945603, 4.294853399973363, 5.460431299987249, 6.542006100004073, 5.677170899987686, 4.893938200024422, 1.6804327000281774, 2.14563869999256, 4.427587300015148, 1.8796757999807596, 4.027875499974471, 2.4458096000016667, 3.3782933999900706, 2.1636226000264287, 1.5469891999964602, 2.7951085999957286, 5.126288999977987, 2.747901900031138, 2.945288499991875, 5.144446199992672, 8.257078199996613, 4.446064300020225, 1.5822093000169843, 1.9632788999588229, 3.045201500004623, 7.958166199969128, 3.0633484999998473, 1.9299065999803133, 3.0294276000349782, 2.7126537000294775, 4.828143700025976, 3.8443806000286713, 6.026908200001344]",1,1,2022-11-04_11h59.36.200,T7,2022.2.2,60.02458608
0.4,400,unexp,4,6,54,1,677.513711,678.5127859,678.5127859,678.5127859,space,2.0928961,681.0269162,681.3288642,681.3288642,681.3288642,681.3288642,600,55,"[5.341000700020231, 4.428008000017144, 11.87045049999142, 4.660540500015486, 5.277511599997524, 3.3787785000167787, 3.1774649000144564, 2.6615122000221163, 3.4789932999992743, 3.128056599991396, 7.059315100021195, 2.129718700016383, 11.10481129999971, 3.379162700031884, 3.5444295999477617, 2.746562400017865, 4.062598999997135, 4.1607945000287145, 6.142480999988038, 5.4759165000286885, 3.0955945000168867, 2.4813149999827147, 4.294847099983599, 5.460425500001293, 6.541998300002888, 5.677164599997923, 4.893932199978735, 1.6804268000414595, 2.1456302999868058, 4.42758210003376, 1.8796700999955647, 4.0278645000071265, 2.4458045000210404, 3.3782890999573283, 2.163617099984549, 1.546980400045868, 2.7951027000090107, 5.126282599987462, 2.7478918000124395, 2.9452823999454267, 5.144436700036749, 8.257073000015225, 4.446031900006346, 1.5822018000180833, 1.9632725999690592, 3.045194900012575, 7.958158100023866, 3.0633410000009462, 1.9298981999745592, 3.029416000004858, 2.712648499989882, 4.82813639997039, 3.8443756999913603, 6.026901500008535, 5.39307709998684]","[5.341013199998997, 4.428014400007669, 11.870459099998698, 4.66054750001058, 5.277519499999471, 3.3787836999981664, 3.1774701999966055, 2.6615179000073113, 3.4790009999996983, 3.128063199983444, 7.059321700013243, 2.129738899995573, 11.104817699990235, 3.3791692000231706, 3.5444344999850728, 2.7465707000228576, 4.062605100043584, 4.160800400015432, 6.142485299962573, 5.475923500023782, 3.095600900007412, 2.4813241999945603, 4.294853399973363, 5.460431299987249, 6.542006100004073, 5.677170899987686, 4.893938200024422, 1.6804327000281774, 2.14563869999256, 4.427587300015148, 1.8796757999807596, 4.027875499974471, 2.4458096000016667, 3.3782933999900706, 2.1636226000264287, 1.5469891999964602, 2.7951085999957286, 5.126288999977987, 2.747901900031138, 2.945288499991875, 5.144446199992672, 8.257078199996613, 4.446064300020225, 1.5822093000169843, 1.9632788999588229, 3.045201500004623, 7.958166199969128, 3.0633484999998473, 1.9299065999803133, 3.0294276000349782, 2.7126537000294775, 4.828143700025976, 3.8443806000286713, 6.026908200001344, 5.393082899972796]",1,1,2022-11-04_11h59.36.200,T7,2022.2.2,60.02458608
0.7,1000,exp,4,7,55,5,686.721803,687.7208752,687.7208752,687.7208752,space,1.1995704,689.6358181,689.935273,689.935273,689.935273,689.935273,200,56,"[5.341000700020231, 4.428008000017144, 11.87045049999142, 4.660540500015486, 5.277511599997524, 3.3787785000167787, 3.1774649000144564, 2.6615122000221163, 3.4789932999992743, 3.128056599991396, 7.059315100021195, 2.129718700016383, 11.10481129999971, 3.379162700031884, 3.5444295999477617, 2.746562400017865, 4.062598999997135, 4.1607945000287145, 6.142480999988038, 5.4759165000286885, 3.0955945000168867, 2.4813149999827147, 4.294847099983599, 5.460425500001293, 6.541998300002888, 5.677164599997923, 4.893932199978735, 1.6804268000414595, 2.1456302999868058, 4.42758210003376, 1.8796700999955647, 4.0278645000071265, 2.4458045000210404, 3.3782890999573283, 2.163617099984549, 1.546980400045868, 2.7951027000090107, 5.126282599987462, 2.7478918000124395, 2.9452823999454267, 5.144436700036749, 8.257073000015225, 4.446031900006346, 1.5822018000180833, 1.9632725999690592, 3.045194900012575, 7.958158100023866, 3.0633410000009462, 1.9298981999745592, 3.029416000004858, 2.712648499989882, 4.82813639997039, 3.8443756999913603, 6.026901500008535, 5.39307709998684, 4.179077200009488]","[5.341013199998997, 4.428014400007669, 11.870459099998698, 4.66054750001058, 5.277519499999471, 3.3787836999981664, 3.1774701999966055, 2.6615179000073113, 3.4790009999996983, 3.128063199983444, 7.059321700013243, 2.129738899995573, 11.104817699990235, 3.3791692000231706, 3.5444344999850728, 2.7465707000228576, 4.062605100043584, 4.160800400015432, 6.142485299962573, 5.475923500023782, 3.095600900007412, 2.4813241999945603, 4.294853399973363, 5.460431299987249, 6.542006100004073, 5.677170899987686, 4.893938200024422, 1.6804327000281774, 2.14563869999256, 4.427587300015148, 1.8796757999807596, 4.027875499974471, 2.4458096000016667, 3.3782933999900706, 2.1636226000264287, 1.5469891999964602, 2.7951085999957286, 5.126288999977987, 2.747901900031138, 2.945288499991875, 5.144446199992672, 8.257078199996613, 4.446064300020225, 1.5822093000169843, 1.9632788999588229, 3.045201500004623, 7.958166199969128, 3.0633484999998473, 1.9299065999803133, 3.0294276000349782, 2.7126537000294775, 4.828143700025976, 3.8443806000286713, 6.026908200001344, 5.393082899972796, 4.179082399990875]",1,1,2022-11-04_11h59.36.200,T7,2022.2.2,60.02458608
0.1,1000,exp,4,8,56,9,694.1148204,695.1139379,695.1139379,695.1139379,space,0.634532,695.8797713,696.1827636,696.1827636,696.1827636,696.1827636,115,57,"[5.341000700020231, 4.428008000017144, 11.87045049999142, 4.660540500015486, 5.277511599997524, 3.3787785000167787, 3.1774649000144564, 2.6615122000221163, 3.4789932999992743, 3.128056599991396, 7.059315100021195, 2.129718700016383, 11.10481129999971, 3.379162700031884, 3.5444295999477617, 2.746562400017865, 4.062598999997135, 4.1607945000287145, 6.142480999988038, 5.4759165000286885, 3.0955945000168867, 2.4813149999827147, 4.294847099983599, 5.460425500001293, 6.541998300002888, 5.677164599997923, 4.893932199978735, 1.6804268000414595, 2.1456302999868058, 4.42758210003376, 1.8796700999955647, 4.0278645000071265, 2.4458045000210404, 3.3782890999573283, 2.163617099984549, 1.546980400045868, 2.7951027000090107, 5.126282599987462, 2.7478918000124395, 2.9452823999454267, 5.144436700036749, 8.257073000015225, 4.446031900006346, 1.5822018000180833, 1.9632725999690592, 3.045194900012575, 7.958158100023866, 3.0633410000009462, 1.9298981999745592, 3.029416000004858, 2.712648499989882, 4.82813639997039, 3.8443756999913603, 6.026901500008535, 5.39307709998684, 4.179077200009488, 9.955297100008465]","[5.341013199998997, 4.428014400007669, 11.870459099998698, 4.66054750001058, 5.277519499999471, 3.3787836999981664, 3.1774701999966055, 2.6615179000073113, 3.4790009999996983, 3.128063199983444, 7.059321700013243, 2.129738899995573, 11.104817699990235, 3.3791692000231706, 3.5444344999850728, 2.7465707000228576, 4.062605100043584, 4.160800400015432, 6.142485299962573, 5.475923500023782, 3.095600900007412, 2.4813241999945603, 4.294853399973363, 5.460431299987249, 6.542006100004073, 5.677170899987686, 4.893938200024422, 1.6804327000281774, 2.14563869999256, 4.427587300015148, 1.8796757999807596, 4.027875499974471, 2.4458096000016667, 3.3782933999900706, 2.1636226000264287, 1.5469891999964602, 2.7951085999957286, 5.126288999977987, 2.747901900031138, 2.945288499991875, 5.144446199992672, 8.257078199996613, 4.446064300020225, 1.5822093000169843, 1.9632788999588229, 3.045201500004623, 7.958166199969128, 3.0633484999998473, 1.9299065999803133, 3.0294276000349782, 2.7126537000294775, 4.828143700025976, 3.8443806000286713, 6.026908200001344, 5.393082899972796, 4.179082399990875, 9.955303199996706]",1,1,2022-11-04_11h59.36.200,T7,2022.2.2,60.02458608
0.4,1000,exp,4,9,57,10,706.1368243,707.1361699,707.1361699,707.1361699,space,1.901765,709.4675417,,709.7678835,709.7678835,709.7678835,80,58,"[5.341000700020231, 4.428008000017144, 11.87045049999142, 4.660540500015486, 5.277511599997524, 3.3787785000167787, 3.1774649000144564, 2.6615122000221163, 3.4789932999992743, 3.128056599991396, 7.059315100021195, 2.129718700016383, 11.10481129999971, 3.379162700031884, 3.5444295999477617, 2.746562400017865, 4.062598999997135, 4.1607945000287145, 6.142480999988038, 5.4759165000286885, 3.0955945000168867, 2.4813149999827147, 4.294847099983599, 5.460425500001293, 6.541998300002888, 5.677164599997923, 4.893932199978735, 1.6804268000414595, 2.1456302999868058, 4.42758210003376, 1.8796700999955647, 4.0278645000071265, 2.4458045000210404, 3.3782890999573283, 2.163617099984549, 1.546980400045868, 2.7951027000090107, 5.126282599987462, 2.7478918000124395, 2.9452823999454267, 5.144436700036749, 8.257073000015225, 4.446031900006346, 1.5822018000180833, 1.9632725999690592, 3.045194900012575, 7.958158100023866, 3.0633410000009462, 1.9298981999745592, 3.029416000004858, 2.712648499989882, 4.82813639997039, 3.8443756999913603, 6.026901500008535, 5.39307709998684, 4.179077200009488, 9.955297100008465, 5.510467200016137]","[5.341013199998997, 4.428014400007669, 11.870459099998698, 4.66054750001058, 5.277519499999471, 3.3787836999981664, 3.1774701999966055, 2.6615179000073113, 3.4790009999996983, 3.128063199983444, 7.059321700013243, 2.129738899995573, 11.104817699990235, 3.3791692000231706, 3.5444344999850728, 2.7465707000228576, 4.062605100043584, 4.160800400015432, 6.142485299962573, 5.475923500023782, 3.095600900007412, 2.4813241999945603, 4.294853399973363, 5.460431299987249, 6.542006100004073, 5.677170899987686, 4.893938200024422, 1.6804327000281774, 2.14563869999256, 4.427587300015148, 1.8796757999807596, 4.027875499974471, 2.4458096000016667, 3.3782933999900706, 2.1636226000264287, 1.5469891999964602, 2.7951085999957286, 5.126288999977987, 2.747901900031138, 2.945288499991875, 5.144446199992672, 8.257078199996613, 4.446064300020225, 1.5822093000169843, 1.9632788999588229, 3.045201500004623, 7.958166199969128, 3.0633484999998473, 1.9299065999803133, 3.0294276000349782, 2.7126537000294775, 4.828143700025976, 3.8443806000286713, 6.026908200001344, 5.393082899972796, 4.179082399990875, 9.955303199996706, 5.510476600029506]",1,1,2022-11-04_11h59.36.200,T7,2022.2.2,60.02458608
0.7,1000,exp,4,10,58,11,715.2785174,716.2778445,716.2778445,716.2778445,space,1.5680512,718.5754145,,718.8752126,718.8752126,718.8752126,90,59,"[5.341000700020231, 4.428008000017144, 11.87045049999142, 4.660540500015486, 5.277511599997524, 3.3787785000167787, 3.1774649000144564, 2.6615122000221163, 3.4789932999992743, 3.128056599991396, 7.059315100021195, 2.129718700016383, 11.10481129999971, 3.379162700031884, 3.5444295999477617, 2.746562400017865, 4.062598999997135, 4.1607945000287145, 6.142480999988038, 5.4759165000286885, 3.0955945000168867, 2.4813149999827147, 4.294847099983599, 5.460425500001293, 6.541998300002888, 5.677164599997923, 4.893932199978735, 1.6804268000414595, 2.1456302999868058, 4.42758210003376, 1.8796700999955647, 4.0278645000071265, 2.4458045000210404, 3.3782890999573283, 2.163617099984549, 1.546980400045868, 2.7951027000090107, 5.126282599987462, 2.7478918000124395, 2.9452823999454267, 5.144436700036749, 8.257073000015225, 4.446031900006346, 1.5822018000180833, 1.9632725999690592, 3.045194900012575, 7.958158100023866, 3.0633410000009462, 1.9298981999745592, 3.029416000004858, 2.712648499989882, 4.82813639997039, 3.8443756999913603, 6.026901500008535, 5.39307709998684, 4.179077200009488, 9.955297100008465, 5.510467200016137, 7.092214900010731]","[5.341013199998997, 4.428014400007669, 11.870459099998698, 4.66054750001058, 5.277519499999471, 3.3787836999981664, 3.1774701999966055, 2.6615179000073113, 3.4790009999996983, 3.128063199983444, 7.059321700013243, 2.129738899995573, 11.104817699990235, 3.3791692000231706, 3.5444344999850728, 2.7465707000228576, 4.062605100043584, 4.160800400015432, 6.142485299962573, 5.475923500023782, 3.095600900007412, 2.4813241999945603, 4.294853399973363, 5.460431299987249, 6.542006100004073, 5.677170899987686, 4.893938200024422, 1.6804327000281774, 2.14563869999256, 4.427587300015148, 1.8796757999807596, 4.027875499974471, 2.4458096000016667, 3.3782933999900706, 2.1636226000264287, 1.5469891999964602, 2.7951085999957286, 5.126288999977987, 2.747901900031138, 2.945288499991875, 5.144446199992672, 8.257078199996613, 4.446064300020225, 1.5822093000169843, 1.9632788999588229, 3.045201500004623, 7.958166199969128, 3.0633484999998473, 1.9299065999803133, 3.0294276000349782, 2.7126537000294775, 4.828143700025976, 3.8443806000286713, 6.026908200001344, 5.393082899972796, 4.179082399990875, 9.955303199996706, 5.510476600029506, 7.0922206999966875]",1,1,2022-11-04_11h59.36.200,T7,2022.2.2,60.02458608
0.1,1000,exp,4,11,59,6,725.9684693,726.9676311,726.9676311,726.9846605,space,2.0882259,729.1821132,,729.4836857,729.4836857,729.4836857,450,60,"[5.341000700020231, 4.428008000017144, 11.87045049999142, 4.660540500015486, 5.277511599997524, 3.3787785000167787, 3.1774649000144564, 2.6615122000221163, 3.4789932999992743, 3.128056599991396, 7.059315100021195, 2.129718700016383, 11.10481129999971, 3.379162700031884, 3.5444295999477617, 2.746562400017865, 4.062598999997135, 4.1607945000287145, 6.142480999988038, 5.4759165000286885, 3.0955945000168867, 2.4813149999827147, 4.294847099983599, 5.460425500001293, 6.541998300002888, 5.677164599997923, 4.893932199978735, 1.6804268000414595, 2.1456302999868058, 4.42758210003376, 1.8796700999955647, 4.0278645000071265, 2.4458045000210404, 3.3782890999573283, 2.163617099984549, 1.546980400045868, 2.7951027000090107, 5.126282599987462, 2.7478918000124395, 2.9452823999454267, 5.144436700036749, 8.257073000015225, 4.446031900006346, 1.5822018000180833, 1.9632725999690592, 3.045194900012575, 7.958158100023866, 3.0633410000009462, 1.9298981999745592, 3.029416000004858, 2.712648499989882, 4.82813639997039, 3.8443756999913603, 6.026901500008535, 5.39307709998684, 4.179077200009488, 9.955297100008465, 5.510467200016137, 7.092214900010731, 8.557529100042302]","[5.341013199998997, 4.428014400007669, 11.870459099998698, 4.66054750001058, 5.277519499999471, 3.3787836999981664, 3.1774701999966055, 2.6615179000073113, 3.4790009999996983, 3.128063199983444, 7.059321700013243, 2.129738899995573, 11.104817699990235, 3.3791692000231706, 3.5444344999850728, 2.7465707000228576, 4.062605100043584, 4.160800400015432, 6.142485299962573, 5.475923500023782, 3.095600900007412, 2.4813241999945603, 4.294853399973363, 5.460431299987249, 6.542006100004073, 5.677170899987686, 4.893938200024422, 1.6804327000281774, 2.14563869999256, 4.427587300015148, 1.8796757999807596, 4.027875499974471, 2.4458096000016667, 3.3782933999900706, 2.1636226000264287, 1.5469891999964602, 2.7951085999957286, 5.126288999977987, 2.747901900031138, 2.945288499991875, 5.144446199992672, 8.257078199996613, 4.446064300020225, 1.5822093000169843, 1.9632788999588229, 3.045201500004623, 7.958166199969128, 3.0633484999998473, 1.9299065999803133, 3.0294276000349782, 2.7126537000294775, 4.828143700025976, 3.8443806000286713, 6.026908200001344, 5.393082899972796, 4.179082399990875, 9.955303199996706, 5.510476600029506, 7.0922206999966875, 8.557536100037396]",1,1,2022-11-04_11h59.36.200,T7,2022.2.2,60.02458608
