delay,freq,condition,trials.thisRepN,trials.thisTrialN,trials.thisN,trials.thisIndex,fixation.started,polygon.started,key_resp.started,fixation.stopped,key_resp.keys,key_resp.rt,sound_1.started,text.started,textbox.started,button.started,textbox.text,button.numClicks,button.timesOn,button.timesOff,sound_1.stopped,participant,session,date,expName,psychopyVersion,frameRate,
0.4,1000,exp,0,0,0,7,48.01655120000214,48.85241339999993,48.85241339999993,49.0186672000018,space,0.8608237000007648,50.15067240000062,50.566904300001625,50.566904300001625,50.566904300001625,300,1,[6.427616099997977],[6.4276270999980625],,1,001,2022-11-10_21h54.18.502,T7,2022.2.2,60.12531317823952,
0.4,1000,exp,0,1,1,10,56.89871200000198,57.877237100001366,57.877237100001366,57.91051160000279,space,0.9033669999989797,59.20851350000303,59.51096640000105,59.51096640000105,59.51096640000105,320,2,"[6.427616099997977, 5.259744499999215]","[6.4276270999980625, 5.2597519000009925]",,1,001,2022-11-10_21h54.18.502,T7,2022.2.2,60.12531317823952,
0.4,400,unexp,0,2,2,1,64.77079200000298,65.77008280000155,65.77008280000155,65.78657630000089,space,0.8013045999978203,67.00182780000031,67.30395270000008,67.30395270000008,67.30395270000008,250,3,"[6.427616099997977, 5.259744499999215, 6.842537900000025]","[6.4276270999980625, 5.2597519000009925, 6.842545800001972]",,1,001,2022-11-10_21h54.18.502,T7,2022.2.2,60.12531317823952,
0.1,1000,exp,0,3,3,3,74.14532500000132,75.14463950000209,75.14463950000209,75.1612481000011,space,0.517115399998147,75.79369840000217,76.09346690000166,76.09346690000166,76.09346690000166,200,4,"[6.427616099997977, 5.259744499999215, 6.842537900000025, 4.6631648000002315]","[6.4276270999980625, 5.2597519000009925, 6.842545800001972, 4.6631778000009945]",76.09346690000166,1,001,2022-11-10_21h54.18.502,T7,2022.2.2,60.12531317823952,
0.7,1000,exp,0,4,4,8,80.75618310000209,81.75512610000078,81.75512610000078,81.77166990000114,space,0.5042810999984795,82.98710870000068,83.28849390000323,83.28849390000323,83.28849390000323,400,5,"[6.427616099997977, 5.259744499999215, 6.842537900000025, 4.6631648000002315, 5.6589205999989645]","[6.4276270999980625, 5.2597519000009925, 6.842545800001972, 4.6631778000009945, 5.658928500000911]",,1,001,2022-11-10_21h54.18.502,T7,2022.2.2,60.12531317823952,
0.1,400,unexp,0,5,5,0,88.94837170000028,89.9475506000017,89.9475506000017,89.96414320000258,space,1.161183299998811,91.22929220000296,91.53173720000268,91.53173720000268,91.53173720000268,150,6,"[6.427616099997977, 5.259744499999215, 6.842537900000025, 4.6631648000002315, 5.6589205999989645, 6.025882499998261]","[6.4276270999980625, 5.2597519000009925, 6.842545800001972, 4.6631778000009945, 5.658928500000911, 6.025888500000292]",91.53173720000268,1,001,2022-11-10_21h54.18.502,T7,2022.2.2,60.12531317823952,
0.7,1000,exp,0,6,6,11,97.55709050000223,98.55625560000044,98.55625560000044,98.57282240000131,space,0.43108740000025136,99.70475420000147,100.00593980000122,100.00593980000122,100.00593980000122,500,7,"[6.427616099997977, 5.259744499999215, 6.842537900000025, 4.6631648000002315, 5.6589205999989645, 6.025882499998261, 3.0784753000007186]","[6.4276270999980625, 5.2597519000009925, 6.842545800001972, 4.6631778000009945, 5.658928500000911, 6.025888500000292, 3.078479400002834]",,1,001,2022-11-10_21h54.18.502,T7,2022.2.2,60.12531317823952,
0.1,1000,exp,0,7,7,9,103.08520620000127,104.08440750000227,104.08440750000227,104.10097890000179,space,1.7396898999977566,105.98227180000103,106.28564110000298,106.28564110000298,106.28564110000298,350,8,"[6.427616099997977, 5.259744499999215, 6.842537900000025, 4.6631648000002315, 5.6589205999989645, 6.025882499998261, 3.0784753000007186, 8.1087374000017]","[6.4276270999980625, 5.2597519000009925, 6.842545800001972, 4.6631778000009945, 5.658928500000911, 6.025888500000292, 3.078479400002834, 8.108745800000179]",,1,001,2022-11-10_21h54.18.502,T7,2022.2.2,60.12531317823952,
0.1,1000,exp,0,8,8,6,114.39115250000032,115.3906995000034,115.3906995000034,115.3906995000034,space,0.4114262000002782,115.92317340000372,116.22565140000006,116.22565140000006,116.22565140000006,300,9,"[6.427616099997977, 5.259744499999215, 6.842537900000025, 4.6631648000002315, 5.6589205999989645, 6.025882499998261, 3.0784753000007186, 8.1087374000017, 4.3941554999983055]","[6.4276270999980625, 5.2597519000009925, 6.842545800001972, 4.6631778000009945, 5.658928500000911, 6.025888500000292, 3.078479400002834, 8.108745800000179, 4.394162599997799]",,1,001,2022-11-10_21h54.18.502,T7,2022.2.2,60.12531317823952,
0.7,1000,exp,0,9,9,5,120.61914750000142,121.61824640000123,121.61824640000123,121.63479670000015,space,1.6033735999990313,123.94907190000012,124.25327660000039,124.25327660000039,124.25327660000039,350,10,"[6.427616099997977, 5.259744499999215, 6.842537900000025, 4.6631648000002315, 5.6589205999989645, 6.025882499998261, 3.0784753000007186, 8.1087374000017, 4.3941554999983055, 3.728157099998498]","[6.4276270999980625, 5.2597519000009925, 6.842545800001972, 4.6631778000009945, 5.658928500000911, 6.025888500000292, 3.078479400002834, 8.108745800000179, 4.394162599997799, 3.7281657999992603]",,1,001,2022-11-10_21h54.18.502,T7,2022.2.2,60.12531317823952,
0.4,1000,exp,0,10,10,4,127.97899910000342,128.97808950000035,128.97808950000035,128.994702400003,space,0.7318584999957238,130.1267440000025,130.4292217000002,130.4292217000002,130.4292217000002,350,11,"[6.427616099997977, 5.259744499999215, 6.842537900000025, 4.6631648000002315, 5.6589205999989645, 6.025882499998261, 3.0784753000007186, 8.1087374000017, 4.3941554999983055, 3.728157099998498, 3.5611963999981526]","[6.4276270999980625, 5.2597519000009925, 6.842545800001972, 4.6631778000009945, 5.658928500000911, 6.025888500000292, 3.078479400002834, 8.108745800000179, 4.394162599997799, 3.7281657999992603, 3.561203299999761]",130.4292217000002,1,001,2022-11-10_21h54.18.502,T7,2022.2.2,60.12531317823952,
0.7,400,unexp,0,11,11,2,133.9900383000022,134.98919520000345,134.98919520000345,135.0058072000029,space,0.5713967999981833,136.2876654000007,136.58955810000043,136.58955810000043,136.58955810000043,200,12,"[6.427616099997977, 5.259744499999215, 6.842537900000025, 4.6631648000002315, 5.6589205999989645, 6.025882499998261, 3.0784753000007186, 8.1087374000017, 4.3941554999983055, 3.728157099998498, 3.5611963999981526, 6.00918410000304]","[6.4276270999980625, 5.2597519000009925, 6.842545800001972, 4.6631778000009945, 5.658928500000911, 6.025888500000292, 3.078479400002834, 8.108745800000179, 4.394162599997799, 3.7281657999992603, 3.561203299999761, 6.009193500001857]",136.58955810000043,1,001,2022-11-10_21h54.18.502,T7,2022.2.2,60.12531317823952,
0.4,1000,exp,1,0,12,7,142.59876470000017,143.59782390000328,143.59782390000328,143.59782390000328,space,0.7689450999969267,144.79632810000257,145.09644710000066,145.09644710000066,145.09644710000066,120,13,"[6.427616099997977, 5.259744499999215, 6.842537900000025, 4.6631648000002315, 5.6589205999989645, 6.025882499998261, 3.0784753000007186, 8.1087374000017, 4.3941554999983055, 3.728157099998498, 3.5611963999981526, 6.00918410000304, 6.259446600000956]","[6.4276270999980625, 5.2597519000009925, 6.842545800001972, 4.6631778000009945, 5.658928500000911, 6.025888500000292, 3.078479400002834, 8.108745800000179, 4.394162599997799, 3.7281657999992603, 3.561203299999761, 6.009193500001857, 6.259452499998588]",,1,001,2022-11-10_21h54.18.502,T7,2022.2.2,60.12531317823952,
0.1,1000,exp,1,1,13,6,151.35712670000066,152.35639750000337,152.35639750000337,152.35639750000337,space,0.9817495999996027,153.4550169000009,153.75657790000332,153.75657790000332,153.75657790000332,250,14,"[6.427616099997977, 5.259744499999215, 6.842537900000025, 4.6631648000002315, 5.6589205999989645, 6.025882499998261, 3.0784753000007186, 8.1087374000017, 4.3941554999983055, 3.728157099998498, 3.5611963999981526, 6.00918410000304, 6.259446600000956, 6.808631399999285]","[6.4276270999980625, 5.2597519000009925, 6.842545800001972, 4.6631778000009945, 5.658928500000911, 6.025888500000292, 3.078479400002834, 8.108745800000179, 4.394162599997799, 3.7281657999992603, 3.561203299999761, 6.009193500001857, 6.259452499998588, 6.80864450000081]",,1,001,2022-11-10_21h54.18.502,T7,2022.2.2,60.12531317823952,
0.7,1000,exp,1,2,14,5,160.5655386000035,161.56457050000245,161.56457050000245,161.58154150000337,space,0.7599980999984837,163.04651320000048,163.34615790000316,163.34615790000316,163.34615790000316,400,15,"[6.427616099997977, 5.259744499999215, 6.842537900000025, 4.6631648000002315, 5.6589205999989645, 6.025882499998261, 3.0784753000007186, 8.1087374000017, 4.3941554999983055, 3.728157099998498, 3.5611963999981526, 6.00918410000304, 6.259446600000956, 6.808631399999285, 3.6291319000010844]","[6.4276270999980625, 5.2597519000009925, 6.842545800001972, 4.6631778000009945, 5.658928500000911, 6.025888500000292, 3.078479400002834, 8.108745800000179, 4.394162599997799, 3.7281657999992603, 3.561203299999761, 6.009193500001857, 6.259452499998588, 6.80864450000081, 3.6291409000004933]",,1,001,2022-11-10_21h54.18.502,T7,2022.2.2,60.12531317823952,
0.1,1000,exp,1,3,15,9,166.97603920000256,167.97509520000312,167.97509520000312,167.99193180000293,space,0.719336199999816,168.82422500000175,169.12415070000134,169.12415070000134,169.12415070000134,200,16,"[6.427616099997977, 5.259744499999215, 6.842537900000025, 4.6631648000002315, 5.6589205999989645, 6.025882499998261, 3.0784753000007186, 8.1087374000017, 4.3941554999983055, 3.728157099998498, 3.5611963999981526, 6.00918410000304, 6.259446600000956, 6.808631399999285, 3.6291319000010844, 5.411265200000344]","[6.4276270999980625, 5.2597519000009925, 6.842545800001972, 4.6631778000009945, 5.658928500000911, 6.025888500000292, 3.078479400002834, 8.108745800000179, 4.394162599997799, 3.7281657999992603, 3.561203299999761, 6.009193500001857, 6.259452499998588, 6.80864450000081, 3.6291409000004933, 5.411273800000345]",,1,001,2022-11-10_21h54.18.502,T7,2022.2.2,60.12531317823952,
0.7,1000,exp,1,4,16,8,174.53605730000345,175.5350438000023,175.5350438000023,175.55158890000166,space,2.1107095000006666,178.36527800000258,178.66685150000194,178.66685150000194,178.66685150000194,250,17,"[6.427616099997977, 5.259744499999215, 6.842537900000025, 4.6631648000002315, 5.6589205999989645, 6.025882499998261, 3.0784753000007186, 8.1087374000017, 4.3941554999983055, 3.728157099998498, 3.5611963999981526, 6.00918410000304, 6.259446600000956, 6.808631399999285, 3.6291319000010844, 5.411265200000344, 5.459218399999372]","[6.4276270999980625, 5.2597519000009925, 6.842545800001972, 4.6631778000009945, 5.658928500000911, 6.025888500000292, 3.078479400002834, 8.108745800000179, 4.394162599997799, 3.7281657999992603, 3.561203299999761, 6.009193500001857, 6.259452499998588, 6.80864450000081, 3.6291409000004933, 5.411273800000345, 5.4592241999998805]",178.66685150000194,1,001,2022-11-10_21h54.18.502,T7,2022.2.2,60.12531317823952,
0.4,400,unexp,1,5,17,1,184.12678720000258,185.1261465000025,185.1261465000025,185.14262950000193,space,0.9555901999956404,186.50777340000204,186.80789920000097,186.80789920000097,186.80789920000097,150,18,"[6.427616099997977, 5.259744499999215, 6.842537900000025, 4.6631648000002315, 5.6589205999989645, 6.025882499998261, 3.0784753000007186, 8.1087374000017, 4.3941554999983055, 3.728157099998498, 3.5611963999981526, 6.00918410000304, 6.259446600000956, 6.808631399999285, 3.6291319000010844, 5.411265200000344, 5.459218399999372, 7.458298800000193]","[6.4276270999980625, 5.2597519000009925, 6.842545800001972, 4.6631778000009945, 5.658928500000911, 6.025888500000292, 3.078479400002834, 8.108745800000179, 4.394162599997799, 3.7281657999992603, 3.561203299999761, 6.009193500001857, 6.259452499998588, 6.80864450000081, 3.6291409000004933, 5.411273800000345, 5.4592241999998805, 7.458308899997064]",,1,001,2022-11-10_21h54.18.502,T7,2022.2.2,60.12531317823952,
0.1,1000,exp,1,6,18,3,194.26759460000176,195.26638020000246,195.26638020000246,195.2829776000035,space,0.672514299996692,196.06540820000154,196.3685989000005,196.3685989000005,196.3685989000005,250,19,"[6.427616099997977, 5.259744499999215, 6.842537900000025, 4.6631648000002315, 5.6589205999989645, 6.025882499998261, 3.0784753000007186, 8.1087374000017, 4.3941554999983055, 3.728157099998498, 3.5611963999981526, 6.00918410000304, 6.259446600000956, 6.808631399999285, 3.6291319000010844, 5.411265200000344, 5.459218399999372, 7.458298800000193, 5.626578100000188]","[6.4276270999980625, 5.2597519000009925, 6.842545800001972, 4.6631778000009945, 5.658928500000911, 6.025888500000292, 3.078479400002834, 8.108745800000179, 4.394162599997799, 3.7281657999992603, 3.561203299999761, 6.009193500001857, 6.259452499998588, 6.80864450000081, 3.6291409000004933, 5.411273800000345, 5.4592241999998805, 7.458308899997064, 5.626585400001204]",,1,001,2022-11-10_21h54.18.502,T7,2022.2.2,60.12531317823952,
0.7,1000,exp,1,7,19,11,201.99380480000036,202.9928635000033,202.9928635000033,203.00959130000047,space,1.8504648999987694,205.57354450000057,205.87490490000346,205.87490490000346,205.87490490000346,350,20,"[6.427616099997977, 5.259744499999215, 6.842537900000025, 4.6631648000002315, 5.6589205999989645, 6.025882499998261, 3.0784753000007186, 8.1087374000017, 4.3941554999983055, 3.728157099998498, 3.5611963999981526, 6.00918410000304, 6.259446600000956, 6.808631399999285, 3.6291319000010844, 5.411265200000344, 5.459218399999372, 7.458298800000193, 5.626578100000188, 3.511324399998557]","[6.4276270999980625, 5.2597519000009925, 6.842545800001972, 4.6631778000009945, 5.658928500000911, 6.025888500000292, 3.078479400002834, 8.108745800000179, 4.394162599997799, 3.7281657999992603, 3.561203299999761, 6.009193500001857, 6.259452499998588, 6.80864450000081, 3.6291409000004933, 5.411273800000345, 5.4592241999998805, 7.458308899997064, 5.626585400001204, 3.511330099998304]",,1,001,2022-11-10_21h54.18.502,T7,2022.2.2,60.12531317823952,
0.4,1000,exp,1,8,20,4,209.38695400000142,210.38613060000353,210.38613060000353,210.4026683000011,space,1.0867945999962103,211.9009058000025,212.20401070000298,212.20401070000298,212.20401070000298,300,21,"[6.427616099997977, 5.259744499999215, 6.842537900000025, 4.6631648000002315, 5.6589205999989645, 6.025882499998261, 3.0784753000007186, 8.1087374000017, 4.3941554999983055, 3.728157099998498, 3.5611963999981526, 6.00918410000304, 6.259446600000956, 6.808631399999285, 3.6291319000010844, 5.411265200000344, 5.459218399999372, 7.458298800000193, 5.626578100000188, 3.511324399998557, 3.079325200000312]","[6.4276270999980625, 5.2597519000009925, 6.842545800001972, 4.6631778000009945, 5.658928500000911, 6.025888500000292, 3.078479400002834, 8.108745800000179, 4.394162599997799, 3.7281657999992603, 3.561203299999761, 6.009193500001857, 6.259452499998588, 6.80864450000081, 3.6291409000004933, 5.411273800000345, 5.4592241999998805, 7.458308899997064, 5.626585400001204, 3.511330099998304, 3.079333099998621]",212.20401070000298,1,001,2022-11-10_21h54.18.502,T7,2022.2.2,60.12531317823952,
0.1,400,unexp,1,9,21,0,215.2815967000024,216.2807517000001,216.2807517000001,216.2807517000001,space,1.76896719999786,218.17851850000224,218.48148680000304,218.48148680000304,218.48148680000304,270,22,"[6.427616099997977, 5.259744499999215, 6.842537900000025, 4.6631648000002315, 5.6589205999989645, 6.025882499998261, 3.0784753000007186, 8.1087374000017, 4.3941554999983055, 3.728157099998498, 3.5611963999981526, 6.00918410000304, 6.259446600000956, 6.808631399999285, 3.6291319000010844, 5.411265200000344, 5.459218399999372, 7.458298800000193, 5.626578100000188, 3.511324399998557, 3.079325200000312, 6.058932100000675]","[6.4276270999980625, 5.2597519000009925, 6.842545800001972, 4.6631778000009945, 5.658928500000911, 6.025888500000292, 3.078479400002834, 8.108745800000179, 4.394162599997799, 3.7281657999992603, 3.561203299999761, 6.009193500001857, 6.259452499998588, 6.80864450000081, 3.6291409000004933, 5.411273800000345, 5.4592241999998805, 7.458308899997064, 5.626585400001204, 3.511330099998304, 3.079333099998621, 6.058940300001268]",,1,001,2022-11-10_21h54.18.502,T7,2022.2.2,60.12531317823952,
0.4,1000,exp,1,10,22,10,224.53962580000007,225.53885870000158,225.53885870000158,225.55568370000037,space,0.7043447999967611,226.67071700000233,226.97083000000202,226.97083000000202,226.97083000000202,380,23,"[6.427616099997977, 5.259744499999215, 6.842537900000025, 4.6631648000002315, 5.6589205999989645, 6.025882499998261, 3.0784753000007186, 8.1087374000017, 4.3941554999983055, 3.728157099998498, 3.5611963999981526, 6.00918410000304, 6.259446600000956, 6.808631399999285, 3.6291319000010844, 5.411265200000344, 5.459218399999372, 7.458298800000193, 5.626578100000188, 3.511324399998557, 3.079325200000312, 6.058932100000675, 8.858124900001712]","[6.4276270999980625, 5.2597519000009925, 6.842545800001972, 4.6631778000009945, 5.658928500000911, 6.025888500000292, 3.078479400002834, 8.108745800000179, 4.394162599997799, 3.7281657999992603, 3.561203299999761, 6.009193500001857, 6.259452499998588, 6.80864450000081, 3.6291409000004933, 5.411273800000345, 5.4592241999998805, 7.458308899997064, 5.626585400001204, 3.511330099998304, 3.079333099998621, 6.058940300001268, 8.858135200000106]",,1,001,2022-11-10_21h54.18.502,T7,2022.2.2,60.12531317823952,
0.7,400,unexp,1,11,23,2,235.82905510000273,236.82837030000155,236.82837030000155,236.82837030000155,space,0.8285615999993752,238.3765201000002,238.67685560000245,238.67685560000245,238.67685560000245,260,24,"[6.427616099997977, 5.259744499999215, 6.842537900000025, 4.6631648000002315, 5.6589205999989645, 6.025882499998261, 3.0784753000007186, 8.1087374000017, 4.3941554999983055, 3.728157099998498, 3.5611963999981526, 6.00918410000304, 6.259446600000956, 6.808631399999285, 3.6291319000010844, 5.411265200000344, 5.459218399999372, 7.458298800000193, 5.626578100000188, 3.511324399998557, 3.079325200000312, 6.058932100000675, 8.858124900001712, 4.927632200000517]","[6.4276270999980625, 5.2597519000009925, 6.842545800001972, 4.6631778000009945, 5.658928500000911, 6.025888500000292, 3.078479400002834, 8.108745800000179, 4.394162599997799, 3.7281657999992603, 3.561203299999761, 6.009193500001857, 6.259452499998588, 6.80864450000081, 3.6291409000004933, 5.411273800000345, 5.4592241999998805, 7.458308899997064, 5.626585400001204, 3.511330099998304, 3.079333099998621, 6.058940300001268, 8.858135200000106, 4.927641400001448]",238.67685560000245,1,001,2022-11-10_21h54.18.502,T7,2022.2.2,60.12531317823952,
0.1,400,unexp,2,0,24,0,243.60544830000072,244.6044557000023,244.6044557000023,244.6210411000029,space,0.6229311999995844,245.3531209000008,245.65866860000096,245.65866860000096,245.65866860000096,200,25,"[6.427616099997977, 5.259744499999215, 6.842537900000025, 4.6631648000002315, 5.6589205999989645, 6.025882499998261, 3.0784753000007186, 8.1087374000017, 4.3941554999983055, 3.728157099998498, 3.5611963999981526, 6.00918410000304, 6.259446600000956, 6.808631399999285, 3.6291319000010844, 5.411265200000344, 5.459218399999372, 7.458298800000193, 5.626578100000188, 3.511324399998557, 3.079325200000312, 6.058932100000675, 8.858124900001712, 4.927632200000517, 5.410349199999473]","[6.4276270999980625, 5.2597519000009925, 6.842545800001972, 4.6631778000009945, 5.658928500000911, 6.025888500000292, 3.078479400002834, 8.108745800000179, 4.394162599997799, 3.7281657999992603, 3.561203299999761, 6.009193500001857, 6.259452499998588, 6.80864450000081, 3.6291409000004933, 5.411273800000345, 5.4592241999998805, 7.458308899997064, 5.626585400001204, 3.511330099998304, 3.079333099998621, 6.058940300001268, 8.858135200000106, 4.927641400001448, 5.410356500000489]",245.65866860000096,1,001,2022-11-10_21h54.18.502,T7,2022.2.2,60.12531317823952,
0.1,1000,exp,2,1,25,3,251.06510400000116,252.06446860000142,252.06446860000142,252.0807676000004,space,0.6544018999993568,252.84628570000277,253.14627490000203,253.14627490000203,253.14627490000203,360,26,"[6.427616099997977, 5.259744499999215, 6.842537900000025, 4.6631648000002315, 5.6589205999989645, 6.025882499998261, 3.0784753000007186, 8.1087374000017, 4.3941554999983055, 3.728157099998498, 3.5611963999981526, 6.00918410000304, 6.259446600000956, 6.808631399999285, 3.6291319000010844, 5.411265200000344, 5.459218399999372, 7.458298800000193, 5.626578100000188, 3.511324399998557, 3.079325200000312, 6.058932100000675, 8.858124900001712, 4.927632200000517, 5.410349199999473, 5.0606537999992725]","[6.4276270999980625, 5.2597519000009925, 6.842545800001972, 4.6631778000009945, 5.658928500000911, 6.025888500000292, 3.078479400002834, 8.108745800000179, 4.394162599997799, 3.7281657999992603, 3.561203299999761, 6.009193500001857, 6.259452499998588, 6.80864450000081, 3.6291409000004933, 5.411273800000345, 5.4592241999998805, 7.458308899997064, 5.626585400001204, 3.511330099998304, 3.079333099998621, 6.058940300001268, 8.858135200000106, 4.927641400001448, 5.410356500000489, 5.060661600000458]",253.14627490000203,1,001,2022-11-10_21h54.18.502,T7,2022.2.2,60.12531317823952,
0.7,1000,exp,2,2,26,5,258.20842710000215,259.2076804000026,259.2076804000026,259.2243243000012,space,0.6687271999981022,260.6061083000037,260.9067705000016,260.9067705000016,260.9067705000016,350,27,"[6.427616099997977, 5.259744499999215, 6.842537900000025, 4.6631648000002315, 5.6589205999989645, 6.025882499998261, 3.0784753000007186, 8.1087374000017, 4.3941554999983055, 3.728157099998498, 3.5611963999981526, 6.00918410000304, 6.259446600000956, 6.808631399999285, 3.6291319000010844, 5.411265200000344, 5.459218399999372, 7.458298800000193, 5.626578100000188, 3.511324399998557, 3.079325200000312, 6.058932100000675, 8.858124900001712, 4.927632200000517, 5.410349199999473, 5.0606537999992725, 5.076500600000145]","[6.4276270999980625, 5.2597519000009925, 6.842545800001972, 4.6631778000009945, 5.658928500000911, 6.025888500000292, 3.078479400002834, 8.108745800000179, 4.394162599997799, 3.7281657999992603, 3.561203299999761, 6.009193500001857, 6.259452499998588, 6.80864450000081, 3.6291409000004933, 5.411273800000345, 5.4592241999998805, 7.458308899997064, 5.626585400001204, 3.511330099998304, 3.079333099998621, 6.058940300001268, 8.858135200000106, 4.927641400001448, 5.410356500000489, 5.060661600000458, 5.076507499998115]",,1,001,2022-11-10_21h54.18.502,T7,2022.2.2,60.12531317823952,
0.7,400,unexp,2,3,27,2,265.98484270000336,266.9836807000029,266.9836807000029,267.00044710000293,space,0.6060575000010431,268.3154621000009,268.6177924000003,268.6177924000003,268.6177924000003,280,28,"[6.427616099997977, 5.259744499999215, 6.842537900000025, 4.6631648000002315, 5.6589205999989645, 6.025882499998261, 3.0784753000007186, 8.1087374000017, 4.3941554999983055, 3.728157099998498, 3.5611963999981526, 6.00918410000304, 6.259446600000956, 6.808631399999285, 3.6291319000010844, 5.411265200000344, 5.459218399999372, 7.458298800000193, 5.626578100000188, 3.511324399998557, 3.079325200000312, 6.058932100000675, 8.858124900001712, 4.927632200000517, 5.410349199999473, 5.0606537999992725, 5.076500600000145, 10.221638899998652]","[6.4276270999980625, 5.2597519000009925, 6.842545800001972, 4.6631778000009945, 5.658928500000911, 6.025888500000292, 3.078479400002834, 8.108745800000179, 4.394162599997799, 3.7281657999992603, 3.561203299999761, 6.009193500001857, 6.259452499998588, 6.80864450000081, 3.6291409000004933, 5.411273800000345, 5.4592241999998805, 7.458308899997064, 5.626585400001204, 3.511330099998304, 3.079333099998621, 6.058940300001268, 8.858135200000106, 4.927641400001448, 5.410356500000489, 5.060661600000458, 5.076507499998115, 10.221647499998653]",268.6177924000003,1,001,2022-11-10_21h54.18.502,T7,2022.2.2,60.12531317823952,
0.1,1000,exp,2,4,28,9,278.8395174000034,279.8384965000005,279.8384965000005,279.8551391000001,space,0.7126316999965638,280.670674300001,280.97091440000077,280.97091440000077,280.97091440000077,360,29,"[6.427616099997977, 5.259744499999215, 6.842537900000025, 4.6631648000002315, 5.6589205999989645, 6.025882499998261, 3.0784753000007186, 8.1087374000017, 4.3941554999983055, 3.728157099998498, 3.5611963999981526, 6.00918410000304, 6.259446600000956, 6.808631399999285, 3.6291319000010844, 5.411265200000344, 5.459218399999372, 7.458298800000193, 5.626578100000188, 3.511324399998557, 3.079325200000312, 6.058932100000675, 8.858124900001712, 4.927632200000517, 5.410349199999473, 5.0606537999992725, 5.076500600000145, 10.221638899998652, 5.11038919999919]","[6.4276270999980625, 5.2597519000009925, 6.842545800001972, 4.6631778000009945, 5.658928500000911, 6.025888500000292, 3.078479400002834, 8.108745800000179, 4.394162599997799, 3.7281657999992603, 3.561203299999761, 6.009193500001857, 6.259452499998588, 6.80864450000081, 3.6291409000004933, 5.411273800000345, 5.4592241999998805, 7.458308899997064, 5.626585400001204, 3.511330099998304, 3.079333099998621, 6.058940300001268, 8.858135200000106, 4.927641400001448, 5.410356500000489, 5.060661600000458, 5.076507499998115, 10.221647499998653, 5.110397399999783]",,1,001,2022-11-10_21h54.18.502,T7,2022.2.2,60.12531317823952,
0.1,1000,exp,2,5,29,6,286.0827900000004,287.0817556000002,287.0817556000002,287.09829340000215,space,1.0921355999998923,288.29724190000127,288.5980199000005,288.5980199000005,288.5980199000005,340,30,"[6.427616099997977, 5.259744499999215, 6.842537900000025, 4.6631648000002315, 5.6589205999989645, 6.025882499998261, 3.0784753000007186, 8.1087374000017, 4.3941554999983055, 3.728157099998498, 3.5611963999981526, 6.00918410000304, 6.259446600000956, 6.808631399999285, 3.6291319000010844, 5.411265200000344, 5.459218399999372, 7.458298800000193, 5.626578100000188, 3.511324399998557, 3.079325200000312, 6.058932100000675, 8.858124900001712, 4.927632200000517, 5.410349199999473, 5.0606537999992725, 5.076500600000145, 10.221638899998652, 5.11038919999919, 2.030213800000638]","[6.4276270999980625, 5.2597519000009925, 6.842545800001972, 4.6631778000009945, 5.658928500000911, 6.025888500000292, 3.078479400002834, 8.108745800000179, 4.394162599997799, 3.7281657999992603, 3.561203299999761, 6.009193500001857, 6.259452499998588, 6.80864450000081, 3.6291409000004933, 5.411273800000345, 5.4592241999998805, 7.458308899997064, 5.626585400001204, 3.511330099998304, 3.079333099998621, 6.058940300001268, 8.858135200000106, 4.927641400001448, 5.410356500000489, 5.060661600000458, 5.076507499998115, 10.221647499998653, 5.110397399999783, 2.0302220999983547]",288.5980199000005,1,001,2022-11-10_21h54.18.502,T7,2022.2.2,60.12531317823952,
0.4,1000,exp,2,6,30,7,290.6285268000029,291.62754920000225,291.62754920000225,291.62754920000225,space,0.5894220999980462,292.64294040000243,292.943576200003,292.943576200003,292.943576200003,250,31,"[6.427616099997977, 5.259744499999215, 6.842537900000025, 4.6631648000002315, 5.6589205999989645, 6.025882499998261, 3.0784753000007186, 8.1087374000017, 4.3941554999983055, 3.728157099998498, 3.5611963999981526, 6.00918410000304, 6.259446600000956, 6.808631399999285, 3.6291319000010844, 5.411265200000344, 5.459218399999372, 7.458298800000193, 5.626578100000188, 3.511324399998557, 3.079325200000312, 6.058932100000675, 8.858124900001712, 4.927632200000517, 5.410349199999473, 5.0606537999992725, 5.076500600000145, 10.221638899998652, 5.11038919999919, 2.030213800000638, 4.911071999998967]","[6.4276270999980625, 5.2597519000009925, 6.842545800001972, 4.6631778000009945, 5.658928500000911, 6.025888500000292, 3.078479400002834, 8.108745800000179, 4.394162599997799, 3.7281657999992603, 3.561203299999761, 6.009193500001857, 6.259452499998588, 6.80864450000081, 3.6291409000004933, 5.411273800000345, 5.4592241999998805, 7.458308899997064, 5.626585400001204, 3.511330099998304, 3.079333099998621, 6.058940300001268, 8.858135200000106, 4.927641400001448, 5.410356500000489, 5.060661600000458, 5.076507499998115, 10.221647499998653, 5.110397399999783, 2.0302220999983547, 4.911079800000152]",,1,001,2022-11-10_21h54.18.502,T7,2022.2.2,60.12531317823952,
0.7,1000,exp,2,7,31,8,297.85501040000236,298.8541984000003,298.8541984000003,298.87103970000317,space,1.1841703999998572,300.7684237000009,301.06875610000134,301.06875610000134,301.06875610000134,200,32,"[6.427616099997977, 5.259744499999215, 6.842537900000025, 4.6631648000002315, 5.6589205999989645, 6.025882499998261, 3.0784753000007186, 8.1087374000017, 4.3941554999983055, 3.728157099998498, 3.5611963999981526, 6.00918410000304, 6.259446600000956, 6.808631399999285, 3.6291319000010844, 5.411265200000344, 5.459218399999372, 7.458298800000193, 5.626578100000188, 3.511324399998557, 3.079325200000312, 6.058932100000675, 8.858124900001712, 4.927632200000517, 5.410349199999473, 5.0606537999992725, 5.076500600000145, 10.221638899998652, 5.11038919999919, 2.030213800000638, 4.911071999998967, 4.895724900001369]","[6.4276270999980625, 5.2597519000009925, 6.842545800001972, 4.6631778000009945, 5.658928500000911, 6.025888500000292, 3.078479400002834, 8.108745800000179, 4.394162599997799, 3.7281657999992603, 3.561203299999761, 6.009193500001857, 6.259452499998588, 6.80864450000081, 3.6291409000004933, 5.411273800000345, 5.4592241999998805, 7.458308899997064, 5.626585400001204, 3.511330099998304, 3.079333099998621, 6.058940300001268, 8.858135200000106, 4.927641400001448, 5.410356500000489, 5.060661600000458, 5.076507499998115, 10.221647499998653, 5.110397399999783, 2.0302220999983547, 4.911079800000152, 4.895737399998325]",,1,001,2022-11-10_21h54.18.502,T7,2022.2.2,60.12531317823952,
0.4,1000,exp,2,8,32,10,305.9640175000022,306.96325960000104,306.96325960000104,306.9800286000027,space,0.46806089999881806,307.8620627000033,308.1623019000035,308.1623019000035,308.1623019000035,170,33,"[6.427616099997977, 5.259744499999215, 6.842537900000025, 4.6631648000002315, 5.6589205999989645, 6.025882499998261, 3.0784753000007186, 8.1087374000017, 4.3941554999983055, 3.728157099998498, 3.5611963999981526, 6.00918410000304, 6.259446600000956, 6.808631399999285, 3.6291319000010844, 5.411265200000344, 5.459218399999372, 7.458298800000193, 5.626578100000188, 3.511324399998557, 3.079325200000312, 6.058932100000675, 8.858124900001712, 4.927632200000517, 5.410349199999473, 5.0606537999992725, 5.076500600000145, 10.221638899998652, 5.11038919999919, 2.030213800000638, 4.911071999998967, 4.895724900001369, 4.894458700000541]","[6.4276270999980625, 5.2597519000009925, 6.842545800001972, 4.6631778000009945, 5.658928500000911, 6.025888500000292, 3.078479400002834, 8.108745800000179, 4.394162599997799, 3.7281657999992603, 3.561203299999761, 6.009193500001857, 6.259452499998588, 6.80864450000081, 3.6291409000004933, 5.411273800000345, 5.4592241999998805, 7.458308899997064, 5.626585400001204, 3.511330099998304, 3.079333099998621, 6.058940300001268, 8.858135200000106, 4.927641400001448, 5.410356500000489, 5.060661600000458, 5.076507499998115, 10.221647499998653, 5.110397399999783, 2.0302220999983547, 4.911079800000152, 4.895737399998325, 4.894466699999612]",,1,001,2022-11-10_21h54.18.502,T7,2022.2.2,60.12531317823952,
0.4,400,unexp,2,9,33,1,313.0580058000014,314.05682460000025,314.05682460000025,314.0735468000021,space,0.6650919999992766,315.1385342000009,315.4386790000026,315.4386790000026,315.4386790000026,380,34,"[6.427616099997977, 5.259744499999215, 6.842537900000025, 4.6631648000002315, 5.6589205999989645, 6.025882499998261, 3.0784753000007186, 8.1087374000017, 4.3941554999983055, 3.728157099998498, 3.5611963999981526, 6.00918410000304, 6.259446600000956, 6.808631399999285, 3.6291319000010844, 5.411265200000344, 5.459218399999372, 7.458298800000193, 5.626578100000188, 3.511324399998557, 3.079325200000312, 6.058932100000675, 8.858124900001712, 4.927632200000517, 5.410349199999473, 5.0606537999992725, 5.076500600000145, 10.221638899998652, 5.11038919999919, 2.030213800000638, 4.911071999998967, 4.895724900001369, 4.894458700000541, 3.313008599998284]","[6.4276270999980625, 5.2597519000009925, 6.842545800001972, 4.6631778000009945, 5.658928500000911, 6.025888500000292, 3.078479400002834, 8.108745800000179, 4.394162599997799, 3.7281657999992603, 3.561203299999761, 6.009193500001857, 6.259452499998588, 6.80864450000081, 3.6291409000004933, 5.411273800000345, 5.4592241999998805, 7.458308899997064, 5.626585400001204, 3.511330099998304, 3.079333099998621, 6.058940300001268, 8.858135200000106, 4.927641400001448, 5.410356500000489, 5.060661600000458, 5.076507499998115, 10.221647499998653, 5.110397399999783, 2.0302220999983547, 4.911079800000152, 4.895737399998325, 4.894466699999612, 3.313017199998285]",315.4386790000026,1,001,2022-11-10_21h54.18.502,T7,2022.2.2,60.12531317823952,
0.4,1000,exp,2,10,34,4,318.7524946000012,319.7514605000033,319.7514605000033,319.7681188000024,space,0.5208227000002807,320.7003203000037,321.0005463000016,321.0005463000016,321.0005463000016,200,35,"[6.427616099997977, 5.259744499999215, 6.842537900000025, 4.6631648000002315, 5.6589205999989645, 6.025882499998261, 3.0784753000007186, 8.1087374000017, 4.3941554999983055, 3.728157099998498, 3.5611963999981526, 6.00918410000304, 6.259446600000956, 6.808631399999285, 3.6291319000010844, 5.411265200000344, 5.459218399999372, 7.458298800000193, 5.626578100000188, 3.511324399998557, 3.079325200000312, 6.058932100000675, 8.858124900001712, 4.927632200000517, 5.410349199999473, 5.0606537999992725, 5.076500600000145, 10.221638899998652, 5.11038919999919, 2.030213800000638, 4.911071999998967, 4.895724900001369, 4.894458700000541, 3.313008599998284, 3.8115784999972675]","[6.4276270999980625, 5.2597519000009925, 6.842545800001972, 4.6631778000009945, 5.658928500000911, 6.025888500000292, 3.078479400002834, 8.108745800000179, 4.394162599997799, 3.7281657999992603, 3.561203299999761, 6.009193500001857, 6.259452499998588, 6.80864450000081, 3.6291409000004933, 5.411273800000345, 5.4592241999998805, 7.458308899997064, 5.626585400001204, 3.511330099998304, 3.079333099998621, 6.058940300001268, 8.858135200000106, 4.927641400001448, 5.410356500000489, 5.060661600000458, 5.076507499998115, 10.221647499998653, 5.110397399999783, 2.0302220999983547, 4.911079800000152, 4.895737399998325, 4.894466699999612, 3.313017199998285, 3.811585199997353]",321.0005463000016,1,001,2022-11-10_21h54.18.502,T7,2022.2.2,60.12531317823952,
0.7,1000,exp,2,11,35,11,324.8133702000014,325.8125022000022,325.8125022000022,325.8125022000022,space,0.7310847000007925,327.260960600002,327.5652230000014,327.5652230000014,327.5652230000014,150,36,"[6.427616099997977, 5.259744499999215, 6.842537900000025, 4.6631648000002315, 5.6589205999989645, 6.025882499998261, 3.0784753000007186, 8.1087374000017, 4.3941554999983055, 3.728157099998498, 3.5611963999981526, 6.00918410000304, 6.259446600000956, 6.808631399999285, 3.6291319000010844, 5.411265200000344, 5.459218399999372, 7.458298800000193, 5.626578100000188, 3.511324399998557, 3.079325200000312, 6.058932100000675, 8.858124900001712, 4.927632200000517, 5.410349199999473, 5.0606537999992725, 5.076500600000145, 10.221638899998652, 5.11038919999919, 2.030213800000638, 4.911071999998967, 4.895724900001369, 4.894458700000541, 3.313008599998284, 3.8115784999972675, 4.344585799997731]","[6.4276270999980625, 5.2597519000009925, 6.842545800001972, 4.6631778000009945, 5.658928500000911, 6.025888500000292, 3.078479400002834, 8.108745800000179, 4.394162599997799, 3.7281657999992603, 3.561203299999761, 6.009193500001857, 6.259452499998588, 6.80864450000081, 3.6291409000004933, 5.411273800000345, 5.4592241999998805, 7.458308899997064, 5.626585400001204, 3.511330099998304, 3.079333099998621, 6.058940300001268, 8.858135200000106, 4.927641400001448, 5.410356500000489, 5.060661600000458, 5.076507499998115, 10.221647499998653, 5.110397399999783, 2.0302220999983547, 4.911079800000152, 4.895737399998325, 4.894466699999612, 3.313017199998285, 3.811585199997353, 4.3445969999993395]",327.5652230000014,1,001,2022-11-10_21h54.18.502,T7,2022.2.2,60.12531317823952,
0.7,1000,exp,3,0,36,8,331.90675300000294,332.90571190000264,332.90571190000264,332.90571190000264,space,0.7330091000003449,334.354477100003,334.65513400000054,334.65513400000054,334.65513400000054,140,37,"[6.427616099997977, 5.259744499999215, 6.842537900000025, 4.6631648000002315, 5.6589205999989645, 6.025882499998261, 3.0784753000007186, 8.1087374000017, 4.3941554999983055, 3.728157099998498, 3.5611963999981526, 6.00918410000304, 6.259446600000956, 6.808631399999285, 3.6291319000010844, 5.411265200000344, 5.459218399999372, 7.458298800000193, 5.626578100000188, 3.511324399998557, 3.079325200000312, 6.058932100000675, 8.858124900001712, 4.927632200000517, 5.410349199999473, 5.0606537999992725, 5.076500600000145, 10.221638899998652, 5.11038919999919, 2.030213800000638, 4.911071999998967, 4.895724900001369, 4.894458700000541, 3.313008599998284, 3.8115784999972675, 4.344585799997731, 5.393896099998528]","[6.4276270999980625, 5.2597519000009925, 6.842545800001972, 4.6631778000009945, 5.658928500000911, 6.025888500000292, 3.078479400002834, 8.108745800000179, 4.394162599997799, 3.7281657999992603, 3.561203299999761, 6.009193500001857, 6.259452499998588, 6.80864450000081, 3.6291409000004933, 5.411273800000345, 5.4592241999998805, 7.458308899997064, 5.626585400001204, 3.511330099998304, 3.079333099998621, 6.058940300001268, 8.858135200000106, 4.927641400001448, 5.410356500000489, 5.060661600000458, 5.076507499998115, 10.221647499998653, 5.110397399999783, 2.0302220999983547, 4.911079800000152, 4.895737399998325, 4.894466699999612, 3.313017199998285, 3.811585199997353, 4.3445969999993395, 5.393904399999883]",,1,001,2022-11-10_21h54.18.502,T7,2022.2.2,60.12531317823952,
0.1,1000,exp,3,1,37,3,340.0491572000028,341.0484155000013,341.0484155000013,341.0650796000009,space,0.5332645999988017,341.69785510000077,341.9976196000025,341.9976196000025,341.9976196000025,120,38,"[6.427616099997977, 5.259744499999215, 6.842537900000025, 4.6631648000002315, 5.6589205999989645, 6.025882499998261, 3.0784753000007186, 8.1087374000017, 4.3941554999983055, 3.728157099998498, 3.5611963999981526, 6.00918410000304, 6.259446600000956, 6.808631399999285, 3.6291319000010844, 5.411265200000344, 5.459218399999372, 7.458298800000193, 5.626578100000188, 3.511324399998557, 3.079325200000312, 6.058932100000675, 8.858124900001712, 4.927632200000517, 5.410349199999473, 5.0606537999992725, 5.076500600000145, 10.221638899998652, 5.11038919999919, 2.030213800000638, 4.911071999998967, 4.895724900001369, 4.894458700000541, 3.313008599998284, 3.8115784999972675, 4.344585799997731, 5.393896099998528, 2.729768299999705]","[6.4276270999980625, 5.2597519000009925, 6.842545800001972, 4.6631778000009945, 5.658928500000911, 6.025888500000292, 3.078479400002834, 8.108745800000179, 4.394162599997799, 3.7281657999992603, 3.561203299999761, 6.009193500001857, 6.259452499998588, 6.80864450000081, 3.6291409000004933, 5.411273800000345, 5.4592241999998805, 7.458308899997064, 5.626585400001204, 3.511330099998304, 3.079333099998621, 6.058940300001268, 8.858135200000106, 4.927641400001448, 5.410356500000489, 5.060661600000458, 5.076507499998115, 10.221647499998653, 5.110397399999783, 2.0302220999983547, 4.911079800000152, 4.895737399998325, 4.894466699999612, 3.313017199998285, 3.811585199997353, 4.3445969999993395, 5.393904399999883, 2.729776400003175]",341.9976196000025,1,001,2022-11-10_21h54.18.502,T7,2022.2.2,60.12531317823952,
0.4,1000,exp,3,2,38,10,344.7282944000035,345.72753280000325,345.72753280000325,345.7440471000009,space,1.6680474999993748,347.8252434000002,348.12867560000086,348.12867560000086,348.12867560000086,350,39,"[6.427616099997977, 5.259744499999215, 6.842537900000025, 4.6631648000002315, 5.6589205999989645, 6.025882499998261, 3.0784753000007186, 8.1087374000017, 4.3941554999983055, 3.728157099998498, 3.5611963999981526, 6.00918410000304, 6.259446600000956, 6.808631399999285, 3.6291319000010844, 5.411265200000344, 5.459218399999372, 7.458298800000193, 5.626578100000188, 3.511324399998557, 3.079325200000312, 6.058932100000675, 8.858124900001712, 4.927632200000517, 5.410349199999473, 5.0606537999992725, 5.076500600000145, 10.221638899998652, 5.11038919999919, 2.030213800000638, 4.911071999998967, 4.895724900001369, 4.894458700000541, 3.313008599998284, 3.8115784999972675, 4.344585799997731, 5.393896099998528, 2.729768299999705, 5.093620499999815]","[6.4276270999980625, 5.2597519000009925, 6.842545800001972, 4.6631778000009945, 5.658928500000911, 6.025888500000292, 3.078479400002834, 8.108745800000179, 4.394162599997799, 3.7281657999992603, 3.561203299999761, 6.009193500001857, 6.259452499998588, 6.80864450000081, 3.6291409000004933, 5.411273800000345, 5.4592241999998805, 7.458308899997064, 5.626585400001204, 3.511330099998304, 3.079333099998621, 6.058940300001268, 8.858135200000106, 4.927641400001448, 5.410356500000489, 5.060661600000458, 5.076507499998115, 10.221647499998653, 5.110397399999783, 2.0302220999983547, 4.911079800000152, 4.895737399998325, 4.894466699999612, 3.313017199998285, 3.811585199997353, 4.3445969999993395, 5.393904399999883, 2.729776400003175, 5.093627199999901]",,1,001,2022-11-10_21h54.18.502,T7,2022.2.2,60.12531317823952,
0.4,400,unexp,3,3,39,1,353.2205197000003,354.21970710000096,354.21970710000096,354.21970710000096,space,1.4142671999979939,356.05105440000045,356.3524963000018,356.3524963000018,356.3524963000018,200,40,"[6.427616099997977, 5.259744499999215, 6.842537900000025, 4.6631648000002315, 5.6589205999989645, 6.025882499998261, 3.0784753000007186, 8.1087374000017, 4.3941554999983055, 3.728157099998498, 3.5611963999981526, 6.00918410000304, 6.259446600000956, 6.808631399999285, 3.6291319000010844, 5.411265200000344, 5.459218399999372, 7.458298800000193, 5.626578100000188, 3.511324399998557, 3.079325200000312, 6.058932100000675, 8.858124900001712, 4.927632200000517, 5.410349199999473, 5.0606537999992725, 5.076500600000145, 10.221638899998652, 5.11038919999919, 2.030213800000638, 4.911071999998967, 4.895724900001369, 4.894458700000541, 3.313008599998284, 3.8115784999972675, 4.344585799997731, 5.393896099998528, 2.729768299999705, 5.093620499999815, 2.9788595999998506]","[6.4276270999980625, 5.2597519000009925, 6.842545800001972, 4.6631778000009945, 5.658928500000911, 6.025888500000292, 3.078479400002834, 8.108745800000179, 4.394162599997799, 3.7281657999992603, 3.561203299999761, 6.009193500001857, 6.259452499998588, 6.80864450000081, 3.6291409000004933, 5.411273800000345, 5.4592241999998805, 7.458308899997064, 5.626585400001204, 3.511330099998304, 3.079333099998621, 6.058940300001268, 8.858135200000106, 4.927641400001448, 5.410356500000489, 5.060661600000458, 5.076507499998115, 10.221647499998653, 5.110397399999783, 2.0302220999983547, 4.911079800000152, 4.895737399998325, 4.894466699999612, 3.313017199998285, 3.811585199997353, 4.3445969999993395, 5.393904399999883, 2.729776400003175, 5.093627199999901, 2.978864500000782]",,1,001,2022-11-10_21h54.18.502,T7,2022.2.2,60.12531317823952,
0.7,1000,exp,3,4,40,5,359.3316216000021,360.33075760000065,360.33075760000065,360.3473189000033,space,0.6509372999971674,361.7122020000003,362.0129646000023,362.0129646000023,362.0129646000023,200,41,"[6.427616099997977, 5.259744499999215, 6.842537900000025, 4.6631648000002315, 5.6589205999989645, 6.025882499998261, 3.0784753000007186, 8.1087374000017, 4.3941554999983055, 3.728157099998498, 3.5611963999981526, 6.00918410000304, 6.259446600000956, 6.808631399999285, 3.6291319000010844, 5.411265200000344, 5.459218399999372, 7.458298800000193, 5.626578100000188, 3.511324399998557, 3.079325200000312, 6.058932100000675, 8.858124900001712, 4.927632200000517, 5.410349199999473, 5.0606537999992725, 5.076500600000145, 10.221638899998652, 5.11038919999919, 2.030213800000638, 4.911071999998967, 4.895724900001369, 4.894458700000541, 3.313008599998284, 3.8115784999972675, 4.344585799997731, 5.393896099998528, 2.729768299999705, 5.093620499999815, 2.9788595999998506, 3.395211899998685]","[6.4276270999980625, 5.2597519000009925, 6.842545800001972, 4.6631778000009945, 5.658928500000911, 6.025888500000292, 3.078479400002834, 8.108745800000179, 4.394162599997799, 3.7281657999992603, 3.561203299999761, 6.009193500001857, 6.259452499998588, 6.80864450000081, 3.6291409000004933, 5.411273800000345, 5.4592241999998805, 7.458308899997064, 5.626585400001204, 3.511330099998304, 3.079333099998621, 6.058940300001268, 8.858135200000106, 4.927641400001448, 5.410356500000489, 5.060661600000458, 5.076507499998115, 10.221647499998653, 5.110397399999783, 2.0302220999983547, 4.911079800000152, 4.895737399998325, 4.894466699999612, 3.313017199998285, 3.811585199997353, 4.3445969999993395, 5.393904399999883, 2.729776400003175, 5.093627199999901, 2.978864500000782, 3.395219800000632]",362.0129646000023,1,001,2022-11-10_21h54.18.502,T7,2022.2.2,60.12531317823952,
0.4,1000,exp,3,5,41,7,365.40929080000205,366.4084134000004,366.4084134000004,366.4250215000029,space,0.97493459999896,367.80666580000036,368.10884590000205,368.10884590000205,368.10884590000205,180,42,"[6.427616099997977, 5.259744499999215, 6.842537900000025, 4.6631648000002315, 5.6589205999989645, 6.025882499998261, 3.0784753000007186, 8.1087374000017, 4.3941554999983055, 3.728157099998498, 3.5611963999981526, 6.00918410000304, 6.259446600000956, 6.808631399999285, 3.6291319000010844, 5.411265200000344, 5.459218399999372, 7.458298800000193, 5.626578100000188, 3.511324399998557, 3.079325200000312, 6.058932100000675, 8.858124900001712, 4.927632200000517, 5.410349199999473, 5.0606537999992725, 5.076500600000145, 10.221638899998652, 5.11038919999919, 2.030213800000638, 4.911071999998967, 4.895724900001369, 4.894458700000541, 3.313008599998284, 3.8115784999972675, 4.344585799997731, 5.393896099998528, 2.729768299999705, 5.093620499999815, 2.9788595999998506, 3.395211899998685, 4.311087199999747]","[6.4276270999980625, 5.2597519000009925, 6.842545800001972, 4.6631778000009945, 5.658928500000911, 6.025888500000292, 3.078479400002834, 8.108745800000179, 4.394162599997799, 3.7281657999992603, 3.561203299999761, 6.009193500001857, 6.259452499998588, 6.80864450000081, 3.6291409000004933, 5.411273800000345, 5.4592241999998805, 7.458308899997064, 5.626585400001204, 3.511330099998304, 3.079333099998621, 6.058940300001268, 8.858135200000106, 4.927641400001448, 5.410356500000489, 5.060661600000458, 5.076507499998115, 10.221647499998653, 5.110397399999783, 2.0302220999983547, 4.911079800000152, 4.895737399998325, 4.894466699999612, 3.313017199998285, 3.811585199997353, 4.3445969999993395, 5.393904399999883, 2.729776400003175, 5.093627199999901, 2.978864500000782, 3.395219800000632, 4.31109590000051]",,1,001,2022-11-10_21h54.18.502,T7,2022.2.2,60.12531317823952,
0.7,1000,exp,3,6,42,11,372.41935710000325,373.41857270000037,373.41857270000037,373.4351620000016,space,0.44510299999819836,374.5838919000031,374.8854766000004,374.8854766000004,374.8854766000004,230,43,"[6.427616099997977, 5.259744499999215, 6.842537900000025, 4.6631648000002315, 5.6589205999989645, 6.025882499998261, 3.0784753000007186, 8.1087374000017, 4.3941554999983055, 3.728157099998498, 3.5611963999981526, 6.00918410000304, 6.259446600000956, 6.808631399999285, 3.6291319000010844, 5.411265200000344, 5.459218399999372, 7.458298800000193, 5.626578100000188, 3.511324399998557, 3.079325200000312, 6.058932100000675, 8.858124900001712, 4.927632200000517, 5.410349199999473, 5.0606537999992725, 5.076500600000145, 10.221638899998652, 5.11038919999919, 2.030213800000638, 4.911071999998967, 4.895724900001369, 4.894458700000541, 3.313008599998284, 3.8115784999972675, 4.344585799997731, 5.393896099998528, 2.729768299999705, 5.093620499999815, 2.9788595999998506, 3.395211899998685, 4.311087199999747, 8.340669799999887]","[6.4276270999980625, 5.2597519000009925, 6.842545800001972, 4.6631778000009945, 5.658928500000911, 6.025888500000292, 3.078479400002834, 8.108745800000179, 4.394162599997799, 3.7281657999992603, 3.561203299999761, 6.009193500001857, 6.259452499998588, 6.80864450000081, 3.6291409000004933, 5.411273800000345, 5.4592241999998805, 7.458308899997064, 5.626585400001204, 3.511330099998304, 3.079333099998621, 6.058940300001268, 8.858135200000106, 4.927641400001448, 5.410356500000489, 5.060661600000458, 5.076507499998115, 10.221647499998653, 5.110397399999783, 2.0302220999983547, 4.911079800000152, 4.895737399998325, 4.894466699999612, 3.313017199998285, 3.811585199997353, 4.3445969999993395, 5.393904399999883, 2.729776400003175, 5.093627199999901, 2.978864500000782, 3.395219800000632, 4.31109590000051, 8.340679899996758]",,1,001,2022-11-10_21h54.18.502,T7,2022.2.2,60.12531317823952,
0.1,1000,exp,3,7,43,9,383.2260384000001,384.2252929000024,384.2252929000024,384.24207840000236,space,0.6682675000010931,385.0241542000018,385.3271256000007,385.3271256000007,385.3271256000007,350,44,"[6.427616099997977, 5.259744499999215, 6.842537900000025, 4.6631648000002315, 5.6589205999989645, 6.025882499998261, 3.0784753000007186, 8.1087374000017, 4.3941554999983055, 3.728157099998498, 3.5611963999981526, 6.00918410000304, 6.259446600000956, 6.808631399999285, 3.6291319000010844, 5.411265200000344, 5.459218399999372, 7.458298800000193, 5.626578100000188, 3.511324399998557, 3.079325200000312, 6.058932100000675, 8.858124900001712, 4.927632200000517, 5.410349199999473, 5.0606537999992725, 5.076500600000145, 10.221638899998652, 5.11038919999919, 2.030213800000638, 4.911071999998967, 4.895724900001369, 4.894458700000541, 3.313008599998284, 3.8115784999972675, 4.344585799997731, 5.393896099998528, 2.729768299999705, 5.093620499999815, 2.9788595999998506, 3.395211899998685, 4.311087199999747, 8.340669799999887, 6.925120299998525]","[6.4276270999980625, 5.2597519000009925, 6.842545800001972, 4.6631778000009945, 5.658928500000911, 6.025888500000292, 3.078479400002834, 8.108745800000179, 4.394162599997799, 3.7281657999992603, 3.561203299999761, 6.009193500001857, 6.259452499998588, 6.80864450000081, 3.6291409000004933, 5.411273800000345, 5.4592241999998805, 7.458308899997064, 5.626585400001204, 3.511330099998304, 3.079333099998621, 6.058940300001268, 8.858135200000106, 4.927641400001448, 5.410356500000489, 5.060661600000458, 5.076507499998115, 10.221647499998653, 5.110397399999783, 2.0302220999983547, 4.911079800000152, 4.895737399998325, 4.894466699999612, 3.313017199998285, 3.811585199997353, 4.3445969999993395, 5.393904399999883, 2.729776400003175, 5.093627199999901, 2.978864500000782, 3.395219800000632, 4.31109590000051, 8.340679899996758, 6.92512749999878]",385.3271256000007,1,001,2022-11-10_21h54.18.502,T7,2022.2.2,60.12531317823952,
0.4,1000,exp,3,8,44,4,392.25129570000354,393.2505736000021,393.2505736000021,393.26683330000014,space,1.0605821999997715,394.731699900001,395.0330066000024,395.0330066000024,395.0330066000024,360,45,"[6.427616099997977, 5.259744499999215, 6.842537900000025, 4.6631648000002315, 5.6589205999989645, 6.025882499998261, 3.0784753000007186, 8.1087374000017, 4.3941554999983055, 3.728157099998498, 3.5611963999981526, 6.00918410000304, 6.259446600000956, 6.808631399999285, 3.6291319000010844, 5.411265200000344, 5.459218399999372, 7.458298800000193, 5.626578100000188, 3.511324399998557, 3.079325200000312, 6.058932100000675, 8.858124900001712, 4.927632200000517, 5.410349199999473, 5.0606537999992725, 5.076500600000145, 10.221638899998652, 5.11038919999919, 2.030213800000638, 4.911071999998967, 4.895724900001369, 4.894458700000541, 3.313008599998284, 3.8115784999972675, 4.344585799997731, 5.393896099998528, 2.729768299999705, 5.093620499999815, 2.9788595999998506, 3.395211899998685, 4.311087199999747, 8.340669799999887, 6.925120299998525, 7.025187899998855]","[6.4276270999980625, 5.2597519000009925, 6.842545800001972, 4.6631778000009945, 5.658928500000911, 6.025888500000292, 3.078479400002834, 8.108745800000179, 4.394162599997799, 3.7281657999992603, 3.561203299999761, 6.009193500001857, 6.259452499998588, 6.80864450000081, 3.6291409000004933, 5.411273800000345, 5.4592241999998805, 7.458308899997064, 5.626585400001204, 3.511330099998304, 3.079333099998621, 6.058940300001268, 8.858135200000106, 4.927641400001448, 5.410356500000489, 5.060661600000458, 5.076507499998115, 10.221647499998653, 5.110397399999783, 2.0302220999983547, 4.911079800000152, 4.895737399998325, 4.894466699999612, 3.313017199998285, 3.811585199997353, 4.3445969999993395, 5.393904399999883, 2.729776400003175, 5.093627199999901, 2.978864500000782, 3.395219800000632, 4.31109590000051, 8.340679899996758, 6.92512749999878, 7.025195800000802]",395.0330066000024,1,001,2022-11-10_21h54.18.502,T7,2022.2.2,60.12531317823952,
0.1,1000,exp,3,9,45,6,402.0587299000035,403.057814900003,403.057814900003,403.0744423000033,space,0.6145648999990954,403.79020730000195,404.0902505000013,404.0902505000013,404.0902505000013,180,46,"[6.427616099997977, 5.259744499999215, 6.842537900000025, 4.6631648000002315, 5.6589205999989645, 6.025882499998261, 3.0784753000007186, 8.1087374000017, 4.3941554999983055, 3.728157099998498, 3.5611963999981526, 6.00918410000304, 6.259446600000956, 6.808631399999285, 3.6291319000010844, 5.411265200000344, 5.459218399999372, 7.458298800000193, 5.626578100000188, 3.511324399998557, 3.079325200000312, 6.058932100000675, 8.858124900001712, 4.927632200000517, 5.410349199999473, 5.0606537999992725, 5.076500600000145, 10.221638899998652, 5.11038919999919, 2.030213800000638, 4.911071999998967, 4.895724900001369, 4.894458700000541, 3.313008599998284, 3.8115784999972675, 4.344585799997731, 5.393896099998528, 2.729768299999705, 5.093620499999815, 2.9788595999998506, 3.395211899998685, 4.311087199999747, 8.340669799999887, 6.925120299998525, 7.025187899998855, 5.7105047999975795]","[6.4276270999980625, 5.2597519000009925, 6.842545800001972, 4.6631778000009945, 5.658928500000911, 6.025888500000292, 3.078479400002834, 8.108745800000179, 4.394162599997799, 3.7281657999992603, 3.561203299999761, 6.009193500001857, 6.259452499998588, 6.80864450000081, 3.6291409000004933, 5.411273800000345, 5.4592241999998805, 7.458308899997064, 5.626585400001204, 3.511330099998304, 3.079333099998621, 6.058940300001268, 8.858135200000106, 4.927641400001448, 5.410356500000489, 5.060661600000458, 5.076507499998115, 10.221647499998653, 5.110397399999783, 2.0302220999983547, 4.911079800000152, 4.895737399998325, 4.894466699999612, 3.313017199998285, 3.811585199997353, 4.3445969999993395, 5.393904399999883, 2.729776400003175, 5.093627199999901, 2.978864500000782, 3.395219800000632, 4.31109590000051, 8.340679899996758, 6.92512749999878, 7.025195800000802, 5.710513800000626]",,1,001,2022-11-10_21h54.18.502,T7,2022.2.2,60.12531317823952,
0.7,400,unexp,3,10,46,2,409.8013307000001,410.8006290000012,410.8006290000012,410.81708730000173,space,0.6089481999988493,412.13228740000125,412.43392420000237,412.43392420000237,412.43392420000237,320,47,"[6.427616099997977, 5.259744499999215, 6.842537900000025, 4.6631648000002315, 5.6589205999989645, 6.025882499998261, 3.0784753000007186, 8.1087374000017, 4.3941554999983055, 3.728157099998498, 3.5611963999981526, 6.00918410000304, 6.259446600000956, 6.808631399999285, 3.6291319000010844, 5.411265200000344, 5.459218399999372, 7.458298800000193, 5.626578100000188, 3.511324399998557, 3.079325200000312, 6.058932100000675, 8.858124900001712, 4.927632200000517, 5.410349199999473, 5.0606537999992725, 5.076500600000145, 10.221638899998652, 5.11038919999919, 2.030213800000638, 4.911071999998967, 4.895724900001369, 4.894458700000541, 3.313008599998284, 3.8115784999972675, 4.344585799997731, 5.393896099998528, 2.729768299999705, 5.093620499999815, 2.9788595999998506, 3.395211899998685, 4.311087199999747, 8.340669799999887, 6.925120299998525, 7.025187899998855, 5.7105047999975795, 5.893364200001088]","[6.4276270999980625, 5.2597519000009925, 6.842545800001972, 4.6631778000009945, 5.658928500000911, 6.025888500000292, 3.078479400002834, 8.108745800000179, 4.394162599997799, 3.7281657999992603, 3.561203299999761, 6.009193500001857, 6.259452499998588, 6.80864450000081, 3.6291409000004933, 5.411273800000345, 5.4592241999998805, 7.458308899997064, 5.626585400001204, 3.511330099998304, 3.079333099998621, 6.058940300001268, 8.858135200000106, 4.927641400001448, 5.410356500000489, 5.060661600000458, 5.076507499998115, 10.221647499998653, 5.110397399999783, 2.0302220999983547, 4.911079800000152, 4.895737399998325, 4.894466699999612, 3.313017199998285, 3.811585199997353, 4.3445969999993395, 5.393904399999883, 2.729776400003175, 5.093627199999901, 2.978864500000782, 3.395219800000632, 4.31109590000051, 8.340679899996758, 6.92512749999878, 7.025195800000802, 5.710513800000626, 5.893445300000167]",412.43392420000237,1,001,2022-11-10_21h54.18.502,T7,2022.2.2,60.12531317823952,
0.1,400,unexp,3,11,47,0,418.3269947000008,419.326137,419.326137,419.34273759999996,space,1.0773332999997365,420.5245856000016,420.8251934,420.8251934,420.8251934,100,48,"[6.427616099997977, 5.259744499999215, 6.842537900000025, 4.6631648000002315, 5.6589205999989645, 6.025882499998261, 3.0784753000007186, 8.1087374000017, 4.3941554999983055, 3.728157099998498, 3.5611963999981526, 6.00918410000304, 6.259446600000956, 6.808631399999285, 3.6291319000010844, 5.411265200000344, 5.459218399999372, 7.458298800000193, 5.626578100000188, 3.511324399998557, 3.079325200000312, 6.058932100000675, 8.858124900001712, 4.927632200000517, 5.410349199999473, 5.0606537999992725, 5.076500600000145, 10.221638899998652, 5.11038919999919, 2.030213800000638, 4.911071999998967, 4.895724900001369, 4.894458700000541, 3.313008599998284, 3.8115784999972675, 4.344585799997731, 5.393896099998528, 2.729768299999705, 5.093620499999815, 2.9788595999998506, 3.395211899998685, 4.311087199999747, 8.340669799999887, 6.925120299998525, 7.025187899998855, 5.7105047999975795, 5.893364200001088, 3.4116102999978466]","[6.4276270999980625, 5.2597519000009925, 6.842545800001972, 4.6631778000009945, 5.658928500000911, 6.025888500000292, 3.078479400002834, 8.108745800000179, 4.394162599997799, 3.7281657999992603, 3.561203299999761, 6.009193500001857, 6.259452499998588, 6.80864450000081, 3.6291409000004933, 5.411273800000345, 5.4592241999998805, 7.458308899997064, 5.626585400001204, 3.511330099998304, 3.079333099998621, 6.058940300001268, 8.858135200000106, 4.927641400001448, 5.410356500000489, 5.060661600000458, 5.076507499998115, 10.221647499998653, 5.110397399999783, 2.0302220999983547, 4.911079800000152, 4.895737399998325, 4.894466699999612, 3.313017199998285, 3.811585199997353, 4.3445969999993395, 5.393904399999883, 2.729776400003175, 5.093627199999901, 2.978864500000782, 3.395219800000632, 4.31109590000051, 8.340679899996758, 6.92512749999878, 7.025195800000802, 5.710513800000626, 5.893445300000167, 3.411616800000047]",,1,001,2022-11-10_21h54.18.502,T7,2022.2.2,60.12531317823952,
0.1,1000,exp,4,0,48,3,424.23825040000156,425.23678230000223,425.23678230000223,425.2538164000034,space,0.7564262999985658,426.11934930000064,426.4195169000013,426.4195169000013,426.4195169000013,380,49,"[6.427616099997977, 5.259744499999215, 6.842537900000025, 4.6631648000002315, 5.6589205999989645, 6.025882499998261, 3.0784753000007186, 8.1087374000017, 4.3941554999983055, 3.728157099998498, 3.5611963999981526, 6.00918410000304, 6.259446600000956, 6.808631399999285, 3.6291319000010844, 5.411265200000344, 5.459218399999372, 7.458298800000193, 5.626578100000188, 3.511324399998557, 3.079325200000312, 6.058932100000675, 8.858124900001712, 4.927632200000517, 5.410349199999473, 5.0606537999992725, 5.076500600000145, 10.221638899998652, 5.11038919999919, 2.030213800000638, 4.911071999998967, 4.895724900001369, 4.894458700000541, 3.313008599998284, 3.8115784999972675, 4.344585799997731, 5.393896099998528, 2.729768299999705, 5.093620499999815, 2.9788595999998506, 3.395211899998685, 4.311087199999747, 8.340669799999887, 6.925120299998525, 7.025187899998855, 5.7105047999975795, 5.893364200001088, 3.4116102999978466, 7.508359900002688]","[6.4276270999980625, 5.2597519000009925, 6.842545800001972, 4.6631778000009945, 5.658928500000911, 6.025888500000292, 3.078479400002834, 8.108745800000179, 4.394162599997799, 3.7281657999992603, 3.561203299999761, 6.009193500001857, 6.259452499998588, 6.80864450000081, 3.6291409000004933, 5.411273800000345, 5.4592241999998805, 7.458308899997064, 5.626585400001204, 3.511330099998304, 3.079333099998621, 6.058940300001268, 8.858135200000106, 4.927641400001448, 5.410356500000489, 5.060661600000458, 5.076507499998115, 10.221647499998653, 5.110397399999783, 2.0302220999983547, 4.911079800000152, 4.895737399998325, 4.894466699999612, 3.313017199998285, 3.811585199997353, 4.3445969999993395, 5.393904399999883, 2.729776400003175, 5.093627199999901, 2.978864500000782, 3.395219800000632, 4.31109590000051, 8.340679899996758, 6.92512749999878, 7.025195800000802, 5.710513800000626, 5.893445300000167, 3.411616800000047, 7.508367200000066]",426.4195169000013,1,001,2022-11-10_21h54.18.502,T7,2022.2.2,60.12531317823952,
0.7,1000,exp,4,1,49,5,433.9291400000002,434.92837260000306,434.92837260000306,434.94495780000216,space,0.5462401999975555,436.1938122000007,436.49652570000035,436.49652570000035,436.49652570000035,250,50,"[6.427616099997977, 5.259744499999215, 6.842537900000025, 4.6631648000002315, 5.6589205999989645, 6.025882499998261, 3.0784753000007186, 8.1087374000017, 4.3941554999983055, 3.728157099998498, 3.5611963999981526, 6.00918410000304, 6.259446600000956, 6.808631399999285, 3.6291319000010844, 5.411265200000344, 5.459218399999372, 7.458298800000193, 5.626578100000188, 3.511324399998557, 3.079325200000312, 6.058932100000675, 8.858124900001712, 4.927632200000517, 5.410349199999473, 5.0606537999992725, 5.076500600000145, 10.221638899998652, 5.11038919999919, 2.030213800000638, 4.911071999998967, 4.895724900001369, 4.894458700000541, 3.313008599998284, 3.8115784999972675, 4.344585799997731, 5.393896099998528, 2.729768299999705, 5.093620499999815, 2.9788595999998506, 3.395211899998685, 4.311087199999747, 8.340669799999887, 6.925120299998525, 7.025187899998855, 5.7105047999975795, 5.893364200001088, 3.4116102999978466, 7.508359900002688, 3.0282144000011613]","[6.4276270999980625, 5.2597519000009925, 6.842545800001972, 4.6631778000009945, 5.658928500000911, 6.025888500000292, 3.078479400002834, 8.108745800000179, 4.394162599997799, 3.7281657999992603, 3.561203299999761, 6.009193500001857, 6.259452499998588, 6.80864450000081, 3.6291409000004933, 5.411273800000345, 5.4592241999998805, 7.458308899997064, 5.626585400001204, 3.511330099998304, 3.079333099998621, 6.058940300001268, 8.858135200000106, 4.927641400001448, 5.410356500000489, 5.060661600000458, 5.076507499998115, 10.221647499998653, 5.110397399999783, 2.0302220999983547, 4.911079800000152, 4.895737399998325, 4.894466699999612, 3.313017199998285, 3.811585199997353, 4.3445969999993395, 5.393904399999883, 2.729776400003175, 5.093627199999901, 2.978864500000782, 3.395219800000632, 4.31109590000051, 8.340679899996758, 6.92512749999878, 7.025195800000802, 5.710513800000626, 5.893445300000167, 3.411616800000047, 7.508367200000066, 3.02822229999947]",436.49652570000035,1,001,2022-11-10_21h54.18.502,T7,2022.2.2,60.12531317823952,
0.7,400,unexp,4,2,50,2,439.52394320000167,440.52314130000013,440.52314130000013,440.5396765000005,space,0.5055234999963432,441.7549058000019,442.0569998000028,442.0569998000028,442.0569998000028,350,51,"[6.427616099997977, 5.259744499999215, 6.842537900000025, 4.6631648000002315, 5.6589205999989645, 6.025882499998261, 3.0784753000007186, 8.1087374000017, 4.3941554999983055, 3.728157099998498, 3.5611963999981526, 6.00918410000304, 6.259446600000956, 6.808631399999285, 3.6291319000010844, 5.411265200000344, 5.459218399999372, 7.458298800000193, 5.626578100000188, 3.511324399998557, 3.079325200000312, 6.058932100000675, 8.858124900001712, 4.927632200000517, 5.410349199999473, 5.0606537999992725, 5.076500600000145, 10.221638899998652, 5.11038919999919, 2.030213800000638, 4.911071999998967, 4.895724900001369, 4.894458700000541, 3.313008599998284, 3.8115784999972675, 4.344585799997731, 5.393896099998528, 2.729768299999705, 5.093620499999815, 2.9788595999998506, 3.395211899998685, 4.311087199999747, 8.340669799999887, 6.925120299998525, 7.025187899998855, 5.7105047999975795, 5.893364200001088, 3.4116102999978466, 7.508359900002688, 3.0282144000011613, 3.2120753999988665]","[6.4276270999980625, 5.2597519000009925, 6.842545800001972, 4.6631778000009945, 5.658928500000911, 6.025888500000292, 3.078479400002834, 8.108745800000179, 4.394162599997799, 3.7281657999992603, 3.561203299999761, 6.009193500001857, 6.259452499998588, 6.80864450000081, 3.6291409000004933, 5.411273800000345, 5.4592241999998805, 7.458308899997064, 5.626585400001204, 3.511330099998304, 3.079333099998621, 6.058940300001268, 8.858135200000106, 4.927641400001448, 5.410356500000489, 5.060661600000458, 5.076507499998115, 10.221647499998653, 5.110397399999783, 2.0302220999983547, 4.911079800000152, 4.895737399998325, 4.894466699999612, 3.313017199998285, 3.811585199997353, 4.3445969999993395, 5.393904399999883, 2.729776400003175, 5.093627199999901, 2.978864500000782, 3.395219800000632, 4.31109590000051, 8.340679899996758, 6.92512749999878, 7.025195800000802, 5.710513800000626, 5.893445300000167, 3.411616800000047, 7.508367200000066, 3.02822229999947, 3.2120852999978524]",442.0569998000028,1,001,2022-11-10_21h54.18.502,T7,2022.2.2,60.12531317823952,
0.4,1000,exp,4,3,51,7,445.2682485000005,446.2676336000004,446.2676336000004,446.2676336000004,space,0.4686316999977862,447.16648150000185,447.4684448000007,447.4684448000007,447.4684448000007,120,52,"[6.427616099997977, 5.259744499999215, 6.842537900000025, 4.6631648000002315, 5.6589205999989645, 6.025882499998261, 3.0784753000007186, 8.1087374000017, 4.3941554999983055, 3.728157099998498, 3.5611963999981526, 6.00918410000304, 6.259446600000956, 6.808631399999285, 3.6291319000010844, 5.411265200000344, 5.459218399999372, 7.458298800000193, 5.626578100000188, 3.511324399998557, 3.079325200000312, 6.058932100000675, 8.858124900001712, 4.927632200000517, 5.410349199999473, 5.0606537999992725, 5.076500600000145, 10.221638899998652, 5.11038919999919, 2.030213800000638, 4.911071999998967, 4.895724900001369, 4.894458700000541, 3.313008599998284, 3.8115784999972675, 4.344585799997731, 5.393896099998528, 2.729768299999705, 5.093620499999815, 2.9788595999998506, 3.395211899998685, 4.311087199999747, 8.340669799999887, 6.925120299998525, 7.025187899998855, 5.7105047999975795, 5.893364200001088, 3.4116102999978466, 7.508359900002688, 3.0282144000011613, 3.2120753999988665, 4.3110235999993165]","[6.4276270999980625, 5.2597519000009925, 6.842545800001972, 4.6631778000009945, 5.658928500000911, 6.025888500000292, 3.078479400002834, 8.108745800000179, 4.394162599997799, 3.7281657999992603, 3.561203299999761, 6.009193500001857, 6.259452499998588, 6.80864450000081, 3.6291409000004933, 5.411273800000345, 5.4592241999998805, 7.458308899997064, 5.626585400001204, 3.511330099998304, 3.079333099998621, 6.058940300001268, 8.858135200000106, 4.927641400001448, 5.410356500000489, 5.060661600000458, 5.076507499998115, 10.221647499998653, 5.110397399999783, 2.0302220999983547, 4.911079800000152, 4.895737399998325, 4.894466699999612, 3.313017199998285, 3.811585199997353, 4.3445969999993395, 5.393904399999883, 2.729776400003175, 5.093627199999901, 2.978864500000782, 3.395219800000632, 4.31109590000051, 8.340679899996758, 6.92512749999878, 7.025195800000802, 5.710513800000626, 5.893445300000167, 3.411616800000047, 7.508367200000066, 3.02822229999947, 3.2120852999978524, 4.311031900000671]",447.4684448000007,1,001,2022-11-10_21h54.18.502,T7,2022.2.2,60.12531317823952,
0.7,1000,exp,4,4,52,8,451.77922949999993,452.7782231000019,452.7782231000019,452.79503650000333,space,1.0706654999958118,454.5767319000021,454.8786628000016,454.8786628000016,454.8786628000016,100,53,"[6.427616099997977, 5.259744499999215, 6.842537900000025, 4.6631648000002315, 5.6589205999989645, 6.025882499998261, 3.0784753000007186, 8.1087374000017, 4.3941554999983055, 3.728157099998498, 3.5611963999981526, 6.00918410000304, 6.259446600000956, 6.808631399999285, 3.6291319000010844, 5.411265200000344, 5.459218399999372, 7.458298800000193, 5.626578100000188, 3.511324399998557, 3.079325200000312, 6.058932100000675, 8.858124900001712, 4.927632200000517, 5.410349199999473, 5.0606537999992725, 5.076500600000145, 10.221638899998652, 5.11038919999919, 2.030213800000638, 4.911071999998967, 4.895724900001369, 4.894458700000541, 3.313008599998284, 3.8115784999972675, 4.344585799997731, 5.393896099998528, 2.729768299999705, 5.093620499999815, 2.9788595999998506, 3.395211899998685, 4.311087199999747, 8.340669799999887, 6.925120299998525, 7.025187899998855, 5.7105047999975795, 5.893364200001088, 3.4116102999978466, 7.508359900002688, 3.0282144000011613, 3.2120753999988665, 4.3110235999993165, 3.229135800000222]","[6.4276270999980625, 5.2597519000009925, 6.842545800001972, 4.6631778000009945, 5.658928500000911, 6.025888500000292, 3.078479400002834, 8.108745800000179, 4.394162599997799, 3.7281657999992603, 3.561203299999761, 6.009193500001857, 6.259452499998588, 6.80864450000081, 3.6291409000004933, 5.411273800000345, 5.4592241999998805, 7.458308899997064, 5.626585400001204, 3.511330099998304, 3.079333099998621, 6.058940300001268, 8.858135200000106, 4.927641400001448, 5.410356500000489, 5.060661600000458, 5.076507499998115, 10.221647499998653, 5.110397399999783, 2.0302220999983547, 4.911079800000152, 4.895737399998325, 4.894466699999612, 3.313017199998285, 3.811585199997353, 4.3445969999993395, 5.393904399999883, 2.729776400003175, 5.093627199999901, 2.978864500000782, 3.395219800000632, 4.31109590000051, 8.340679899996758, 6.92512749999878, 7.025195800000802, 5.710513800000626, 5.893445300000167, 3.411616800000047, 7.508367200000066, 3.02822229999947, 3.2120852999978524, 4.311031900000671, 3.2291417000014917]",454.8786628000016,1,001,2022-11-10_21h54.18.502,T7,2022.2.2,60.12531317823952,
0.1,1000,exp,4,5,53,6,458.10684390000097,459.1059187000028,459.1059187000028,459.12246850000156,space,0.9699076999968383,460.2045600000034,460.5063345000017,460.5063345000017,460.5063345000017,80,54,"[6.427616099997977, 5.259744499999215, 6.842537900000025, 4.6631648000002315, 5.6589205999989645, 6.025882499998261, 3.0784753000007186, 8.1087374000017, 4.3941554999983055, 3.728157099998498, 3.5611963999981526, 6.00918410000304, 6.259446600000956, 6.808631399999285, 3.6291319000010844, 5.411265200000344, 5.459218399999372, 7.458298800000193, 5.626578100000188, 3.511324399998557, 3.079325200000312, 6.058932100000675, 8.858124900001712, 4.927632200000517, 5.410349199999473, 5.0606537999992725, 5.076500600000145, 10.221638899998652, 5.11038919999919, 2.030213800000638, 4.911071999998967, 4.895724900001369, 4.894458700000541, 3.313008599998284, 3.8115784999972675, 4.344585799997731, 5.393896099998528, 2.729768299999705, 5.093620499999815, 2.9788595999998506, 3.395211899998685, 4.311087199999747, 8.340669799999887, 6.925120299998525, 7.025187899998855, 5.7105047999975795, 5.893364200001088, 3.4116102999978466, 7.508359900002688, 3.0282144000011613, 3.2120753999988665, 4.3110235999993165, 3.229135800000222, 5.97614479999902]","[6.4276270999980625, 5.2597519000009925, 6.842545800001972, 4.6631778000009945, 5.658928500000911, 6.025888500000292, 3.078479400002834, 8.108745800000179, 4.394162599997799, 3.7281657999992603, 3.561203299999761, 6.009193500001857, 6.259452499998588, 6.80864450000081, 3.6291409000004933, 5.411273800000345, 5.4592241999998805, 7.458308899997064, 5.626585400001204, 3.511330099998304, 3.079333099998621, 6.058940300001268, 8.858135200000106, 4.927641400001448, 5.410356500000489, 5.060661600000458, 5.076507499998115, 10.221647499998653, 5.110397399999783, 2.0302220999983547, 4.911079800000152, 4.895737399998325, 4.894466699999612, 3.313017199998285, 3.811585199997353, 4.3445969999993395, 5.393904399999883, 2.729776400003175, 5.093627199999901, 2.978864500000782, 3.395219800000632, 4.31109590000051, 8.340679899996758, 6.92512749999878, 7.025195800000802, 5.710513800000626, 5.893445300000167, 3.411616800000047, 7.508367200000066, 3.02822229999947, 3.2120852999978524, 4.311031900000671, 3.2291417000014917, 5.976150700000289]",,1,001,2022-11-10_21h54.18.502,T7,2022.2.2,60.12531317823952,
0.7,1000,exp,4,6,54,11,466.4823780000006,467.4816712000029,467.4816712000029,467.4980837000003,space,0.5919111000002886,468.7965883000012,469.09799320000093,469.09799320000093,469.09799320000093,350,55,"[6.427616099997977, 5.259744499999215, 6.842537900000025, 4.6631648000002315, 5.6589205999989645, 6.025882499998261, 3.0784753000007186, 8.1087374000017, 4.3941554999983055, 3.728157099998498, 3.5611963999981526, 6.00918410000304, 6.259446600000956, 6.808631399999285, 3.6291319000010844, 5.411265200000344, 5.459218399999372, 7.458298800000193, 5.626578100000188, 3.511324399998557, 3.079325200000312, 6.058932100000675, 8.858124900001712, 4.927632200000517, 5.410349199999473, 5.0606537999992725, 5.076500600000145, 10.221638899998652, 5.11038919999919, 2.030213800000638, 4.911071999998967, 4.895724900001369, 4.894458700000541, 3.313008599998284, 3.8115784999972675, 4.344585799997731, 5.393896099998528, 2.729768299999705, 5.093620499999815, 2.9788595999998506, 3.395211899998685, 4.311087199999747, 8.340669799999887, 6.925120299998525, 7.025187899998855, 5.7105047999975795, 5.893364200001088, 3.4116102999978466, 7.508359900002688, 3.0282144000011613, 3.2120753999988665, 4.3110235999993165, 3.229135800000222, 5.97614479999902, 2.995371700002579]","[6.4276270999980625, 5.2597519000009925, 6.842545800001972, 4.6631778000009945, 5.658928500000911, 6.025888500000292, 3.078479400002834, 8.108745800000179, 4.394162599997799, 3.7281657999992603, 3.561203299999761, 6.009193500001857, 6.259452499998588, 6.80864450000081, 3.6291409000004933, 5.411273800000345, 5.4592241999998805, 7.458308899997064, 5.626585400001204, 3.511330099998304, 3.079333099998621, 6.058940300001268, 8.858135200000106, 4.927641400001448, 5.410356500000489, 5.060661600000458, 5.076507499998115, 10.221647499998653, 5.110397399999783, 2.0302220999983547, 4.911079800000152, 4.895737399998325, 4.894466699999612, 3.313017199998285, 3.811585199997353, 4.3445969999993395, 5.393904399999883, 2.729776400003175, 5.093627199999901, 2.978864500000782, 3.395219800000632, 4.31109590000051, 8.340679899996758, 6.92512749999878, 7.025195800000802, 5.710513800000626, 5.893445300000167, 3.411616800000047, 7.508367200000066, 3.02822229999947, 3.2120852999978524, 4.311031900000671, 3.2291417000014917, 5.976150700000289, 2.995379600000888]",,1,001,2022-11-10_21h54.18.502,T7,2022.2.2,60.12531317823952,
0.4,1000,exp,4,7,55,10,472.0937812000011,473.0930210000006,473.0930210000006,473.10967280000114,space,0.8311623000008694,474.3414003000013,474.6416459000029,474.6416459000029,474.6416459000029,100,56,"[6.427616099997977, 5.259744499999215, 6.842537900000025, 4.6631648000002315, 5.6589205999989645, 6.025882499998261, 3.0784753000007186, 8.1087374000017, 4.3941554999983055, 3.728157099998498, 3.5611963999981526, 6.00918410000304, 6.259446600000956, 6.808631399999285, 3.6291319000010844, 5.411265200000344, 5.459218399999372, 7.458298800000193, 5.626578100000188, 3.511324399998557, 3.079325200000312, 6.058932100000675, 8.858124900001712, 4.927632200000517, 5.410349199999473, 5.0606537999992725, 5.076500600000145, 10.221638899998652, 5.11038919999919, 2.030213800000638, 4.911071999998967, 4.895724900001369, 4.894458700000541, 3.313008599998284, 3.8115784999972675, 4.344585799997731, 5.393896099998528, 2.729768299999705, 5.093620499999815, 2.9788595999998506, 3.395211899998685, 4.311087199999747, 8.340669799999887, 6.925120299998525, 7.025187899998855, 5.7105047999975795, 5.893364200001088, 3.4116102999978466, 7.508359900002688, 3.0282144000011613, 3.2120753999988665, 4.3110235999993165, 3.229135800000222, 5.97614479999902, 2.995371700002579, 2.946259899999859]","[6.4276270999980625, 5.2597519000009925, 6.842545800001972, 4.6631778000009945, 5.658928500000911, 6.025888500000292, 3.078479400002834, 8.108745800000179, 4.394162599997799, 3.7281657999992603, 3.561203299999761, 6.009193500001857, 6.259452499998588, 6.80864450000081, 3.6291409000004933, 5.411273800000345, 5.4592241999998805, 7.458308899997064, 5.626585400001204, 3.511330099998304, 3.079333099998621, 6.058940300001268, 8.858135200000106, 4.927641400001448, 5.410356500000489, 5.060661600000458, 5.076507499998115, 10.221647499998653, 5.110397399999783, 2.0302220999983547, 4.911079800000152, 4.895737399998325, 4.894466699999612, 3.313017199998285, 3.811585199997353, 4.3445969999993395, 5.393904399999883, 2.729776400003175, 5.093627199999901, 2.978864500000782, 3.395219800000632, 4.31109590000051, 8.340679899996758, 6.92512749999878, 7.025195800000802, 5.710513800000626, 5.893445300000167, 3.411616800000047, 7.508367200000066, 3.02822229999947, 3.2120852999978524, 4.311031900000671, 3.2291417000014917, 5.976150700000289, 2.995379600000888, 2.946266700000706]",,1,001,2022-11-10_21h54.18.502,T7,2022.2.2,60.12531317823952,
0.4,400,unexp,4,8,56,1,477.58879220000017,478.5880535000033,478.5880535000033,478.6046493000031,space,0.6939404999975523,479.70313520000275,480.0059431000009,480.0059431000009,480.0059431000009,320,57,"[6.427616099997977, 5.259744499999215, 6.842537900000025, 4.6631648000002315, 5.6589205999989645, 6.025882499998261, 3.0784753000007186, 8.1087374000017, 4.3941554999983055, 3.728157099998498, 3.5611963999981526, 6.00918410000304, 6.259446600000956, 6.808631399999285, 3.6291319000010844, 5.411265200000344, 5.459218399999372, 7.458298800000193, 5.626578100000188, 3.511324399998557, 3.079325200000312, 6.058932100000675, 8.858124900001712, 4.927632200000517, 5.410349199999473, 5.0606537999992725, 5.076500600000145, 10.221638899998652, 5.11038919999919, 2.030213800000638, 4.911071999998967, 4.895724900001369, 4.894458700000541, 3.313008599998284, 3.8115784999972675, 4.344585799997731, 5.393896099998528, 2.729768299999705, 5.093620499999815, 2.9788595999998506, 3.395211899998685, 4.311087199999747, 8.340669799999887, 6.925120299998525, 7.025187899998855, 5.7105047999975795, 5.893364200001088, 3.4116102999978466, 7.508359900002688, 3.0282144000011613, 3.2120753999988665, 4.3110235999993165, 3.229135800000222, 5.97614479999902, 2.995371700002579, 2.946259899999859, 6.742335800001456]","[6.4276270999980625, 5.2597519000009925, 6.842545800001972, 4.6631778000009945, 5.658928500000911, 6.025888500000292, 3.078479400002834, 8.108745800000179, 4.394162599997799, 3.7281657999992603, 3.561203299999761, 6.009193500001857, 6.259452499998588, 6.80864450000081, 3.6291409000004933, 5.411273800000345, 5.4592241999998805, 7.458308899997064, 5.626585400001204, 3.511330099998304, 3.079333099998621, 6.058940300001268, 8.858135200000106, 4.927641400001448, 5.410356500000489, 5.060661600000458, 5.076507499998115, 10.221647499998653, 5.110397399999783, 2.0302220999983547, 4.911079800000152, 4.895737399998325, 4.894466699999612, 3.313017199998285, 3.811585199997353, 4.3445969999993395, 5.393904399999883, 2.729776400003175, 5.093627199999901, 2.978864500000782, 3.395219800000632, 4.31109590000051, 8.340679899996758, 6.92512749999878, 7.025195800000802, 5.710513800000626, 5.893445300000167, 3.411616800000047, 7.508367200000066, 3.02822229999947, 3.2120852999978524, 4.311031900000671, 3.2291417000014917, 5.976150700000289, 2.995379600000888, 2.946266700000706, 6.742346200000611]",480.0059431000009,1,001,2022-11-10_21h54.18.502,T7,2022.2.2,60.12531317823952,
0.4,1000,exp,4,9,57,4,486.7470871000005,487.7461615000029,487.7461615000029,487.76269630000024,space,0.5634738000007928,488.7282053000032,489.02978820000135,489.02978820000135,489.02978820000135,370,58,"[6.427616099997977, 5.259744499999215, 6.842537900000025, 4.6631648000002315, 5.6589205999989645, 6.025882499998261, 3.0784753000007186, 8.1087374000017, 4.3941554999983055, 3.728157099998498, 3.5611963999981526, 6.00918410000304, 6.259446600000956, 6.808631399999285, 3.6291319000010844, 5.411265200000344, 5.459218399999372, 7.458298800000193, 5.626578100000188, 3.511324399998557, 3.079325200000312, 6.058932100000675, 8.858124900001712, 4.927632200000517, 5.410349199999473, 5.0606537999992725, 5.076500600000145, 10.221638899998652, 5.11038919999919, 2.030213800000638, 4.911071999998967, 4.895724900001369, 4.894458700000541, 3.313008599998284, 3.8115784999972675, 4.344585799997731, 5.393896099998528, 2.729768299999705, 5.093620499999815, 2.9788595999998506, 3.395211899998685, 4.311087199999747, 8.340669799999887, 6.925120299998525, 7.025187899998855, 5.7105047999975795, 5.893364200001088, 3.4116102999978466, 7.508359900002688, 3.0282144000011613, 3.2120753999988665, 4.3110235999993165, 3.229135800000222, 5.97614479999902, 2.995371700002579, 2.946259899999859, 6.742335800001456, 6.0269072000010055]","[6.4276270999980625, 5.2597519000009925, 6.842545800001972, 4.6631778000009945, 5.658928500000911, 6.025888500000292, 3.078479400002834, 8.108745800000179, 4.394162599997799, 3.7281657999992603, 3.561203299999761, 6.009193500001857, 6.259452499998588, 6.80864450000081, 3.6291409000004933, 5.411273800000345, 5.4592241999998805, 7.458308899997064, 5.626585400001204, 3.511330099998304, 3.079333099998621, 6.058940300001268, 8.858135200000106, 4.927641400001448, 5.410356500000489, 5.060661600000458, 5.076507499998115, 10.221647499998653, 5.110397399999783, 2.0302220999983547, 4.911079800000152, 4.895737399998325, 4.894466699999612, 3.313017199998285, 3.811585199997353, 4.3445969999993395, 5.393904399999883, 2.729776400003175, 5.093627199999901, 2.978864500000782, 3.395219800000632, 4.31109590000051, 8.340679899996758, 6.92512749999878, 7.025195800000802, 5.710513800000626, 5.893445300000167, 3.411616800000047, 7.508367200000066, 3.02822229999947, 3.2120852999978524, 4.311031900000671, 3.2291417000014917, 5.976150700000289, 2.995379600000888, 2.946266700000706, 6.742346200000611, 6.026914300000499]",,1,001,2022-11-10_21h54.18.502,T7,2022.2.2,60.12531317823952,
0.1,400,unexp,4,10,58,0,495.05603490000067,496.0551417000024,496.0551417000024,496.07176320000144,space,0.5773912999975437,496.7540395000011,497.05564300000333,497.05564300000333,497.05564300000333,340,59,"[6.427616099997977, 5.259744499999215, 6.842537900000025, 4.6631648000002315, 5.6589205999989645, 6.025882499998261, 3.0784753000007186, 8.1087374000017, 4.3941554999983055, 3.728157099998498, 3.5611963999981526, 6.00918410000304, 6.259446600000956, 6.808631399999285, 3.6291319000010844, 5.411265200000344, 5.459218399999372, 7.458298800000193, 5.626578100000188, 3.511324399998557, 3.079325200000312, 6.058932100000675, 8.858124900001712, 4.927632200000517, 5.410349199999473, 5.0606537999992725, 5.076500600000145, 10.221638899998652, 5.11038919999919, 2.030213800000638, 4.911071999998967, 4.895724900001369, 4.894458700000541, 3.313008599998284, 3.8115784999972675, 4.344585799997731, 5.393896099998528, 2.729768299999705, 5.093620499999815, 2.9788595999998506, 3.395211899998685, 4.311087199999747, 8.340669799999887, 6.925120299998525, 7.025187899998855, 5.7105047999975795, 5.893364200001088, 3.4116102999978466, 7.508359900002688, 3.0282144000011613, 3.2120753999988665, 4.3110235999993165, 3.229135800000222, 5.97614479999902, 2.995371700002579, 2.946259899999859, 6.742335800001456, 6.0269072000010055, 9.456973500000458]","[6.4276270999980625, 5.2597519000009925, 6.842545800001972, 4.6631778000009945, 5.658928500000911, 6.025888500000292, 3.078479400002834, 8.108745800000179, 4.394162599997799, 3.7281657999992603, 3.561203299999761, 6.009193500001857, 6.259452499998588, 6.80864450000081, 3.6291409000004933, 5.411273800000345, 5.4592241999998805, 7.458308899997064, 5.626585400001204, 3.511330099998304, 3.079333099998621, 6.058940300001268, 8.858135200000106, 4.927641400001448, 5.410356500000489, 5.060661600000458, 5.076507499998115, 10.221647499998653, 5.110397399999783, 2.0302220999983547, 4.911079800000152, 4.895737399998325, 4.894466699999612, 3.313017199998285, 3.811585199997353, 4.3445969999993395, 5.393904399999883, 2.729776400003175, 5.093627199999901, 2.978864500000782, 3.395219800000632, 4.31109590000051, 8.340679899996758, 6.92512749999878, 7.025195800000802, 5.710513800000626, 5.893445300000167, 3.411616800000047, 7.508367200000066, 3.02822229999947, 3.2120852999978524, 4.311031900000671, 3.2291417000014917, 5.976150700000289, 2.995379600000888, 2.946266700000706, 6.742346200000611, 6.026914300000499, 9.456983299998683]",497.05564300000333,1,001,2022-11-10_21h54.18.502,T7,2022.2.2,60.12531317823952,
0.1,1000,exp,4,11,59,9,506.51198320000185,507.5111684000003,507.5111684000003,507.5111684000003,space,0.499446199999511,508.126940900003,508.4276497999999,508.4276497999999,508.4276497999999,100,60,"[6.427616099997977, 5.259744499999215, 6.842537900000025, 4.6631648000002315, 5.6589205999989645, 6.025882499998261, 3.0784753000007186, 8.1087374000017, 4.3941554999983055, 3.728157099998498, 3.5611963999981526, 6.00918410000304, 6.259446600000956, 6.808631399999285, 3.6291319000010844, 5.411265200000344, 5.459218399999372, 7.458298800000193, 5.626578100000188, 3.511324399998557, 3.079325200000312, 6.058932100000675, 8.858124900001712, 4.927632200000517, 5.410349199999473, 5.0606537999992725, 5.076500600000145, 10.221638899998652, 5.11038919999919, 2.030213800000638, 4.911071999998967, 4.895724900001369, 4.894458700000541, 3.313008599998284, 3.8115784999972675, 4.344585799997731, 5.393896099998528, 2.729768299999705, 5.093620499999815, 2.9788595999998506, 3.395211899998685, 4.311087199999747, 8.340669799999887, 6.925120299998525, 7.025187899998855, 5.7105047999975795, 5.893364200001088, 3.4116102999978466, 7.508359900002688, 3.0282144000011613, 3.2120753999988665, 4.3110235999993165, 3.229135800000222, 5.97614479999902, 2.995371700002579, 2.946259899999859, 6.742335800001456, 6.0269072000010055, 9.456973500000458, 2.063003800001752]","[6.4276270999980625, 5.2597519000009925, 6.842545800001972, 4.6631778000009945, 5.658928500000911, 6.025888500000292, 3.078479400002834, 8.108745800000179, 4.394162599997799, 3.7281657999992603, 3.561203299999761, 6.009193500001857, 6.259452499998588, 6.80864450000081, 3.6291409000004933, 5.411273800000345, 5.4592241999998805, 7.458308899997064, 5.626585400001204, 3.511330099998304, 3.079333099998621, 6.058940300001268, 8.858135200000106, 4.927641400001448, 5.410356500000489, 5.060661600000458, 5.076507499998115, 10.221647499998653, 5.110397399999783, 2.0302220999983547, 4.911079800000152, 4.895737399998325, 4.894466699999612, 3.313017199998285, 3.811585199997353, 4.3445969999993395, 5.393904399999883, 2.729776400003175, 5.093627199999901, 2.978864500000782, 3.395219800000632, 4.31109590000051, 8.340679899996758, 6.92512749999878, 7.025195800000802, 5.710513800000626, 5.893445300000167, 3.411616800000047, 7.508367200000066, 3.02822229999947, 3.2120852999978524, 4.311031900000671, 3.2291417000014917, 5.976150700000289, 2.995379600000888, 2.946266700000706, 6.742346200000611, 6.026914300000499, 9.456983299998683, 2.0630103000003146]",508.4276497999999,1,001,2022-11-10_21h54.18.502,T7,2022.2.2,60.12531317823952,
